PacketCounter	SampleTimeFine	Acc_X	Acc_Y	Acc_Z	Gyr_X	Gyr_Y	Gyr_Z
00001	11891767	-9.790791	-0.314567	0.275169	-0.006178	0.004721	0.000156
00002	11891817	-9.793962	-0.284862	0.266489	-0.003649	0.000504	-0.000162
00003	11891867	-9.788009	-0.292730	0.281940	-0.001595	0.002079	-0.004072
00004	11891917	-9.806449	-0.301334	0.276019	-0.004141	0.002685	-0.002357
00005	11891967	-9.801782	-0.309807	0.271430	-0.005069	0.002666	-0.003831
00006	11892017	-9.789397	-0.281881	0.252222	-0.006251	0.002447	-0.004822
00007	11892067	-9.812224	-0.288607	0.260419	-0.008888	0.003148	-0.002758
00008	11892117	-9.818409	-0.302030	0.247853	-0.004514	0.001127	-0.003709
00009	11892167	-9.803854	-0.306570	0.253968	-0.005886	0.003595	0.001080
00010	11892217	-9.826134	-0.296987	0.255620	-0.005647	-0.001183	-0.001349
00011	11892267	-9.790126	-0.298591	0.250917	-0.003790	-0.000378	-0.002119
00012	11892317	-9.813240	-0.304813	0.265332	-0.006984	-0.000463	-0.002783
00013	11892367	-9.805964	-0.313617	0.262519	-0.004442	-0.000902	-0.000069
00014	11892417	-9.799225	-0.306454	0.274364	-0.004524	0.000644	-0.002916
00015	11892467	-9.799668	-0.311206	0.279076	-0.000946	0.003097	-0.000507
00016	11892517	-9.793040	-0.306553	0.275548	-0.004210	0.000815	-0.000606
00017	11892567	-9.802939	-0.305255	0.257637	-0.004625	0.000837	-0.000859
00018	11892617	-9.826263	-0.296834	0.275921	-0.006921	0.001699	-0.001555
00019	11892667	-9.808602	-0.316416	0.270745	-0.002288	0.003017	0.000238
00020	11892717	-9.815699	-0.302646	0.273487	-0.005162	-0.000562	-0.003591
00021	11892767	-9.815715	-0.301457	0.273770	-0.005451	0.000562	-0.003615
00022	11892817	-9.817282	-0.312893	0.280204	-0.004271	0.000780	-0.001308
00023	11892867	-9.797225	-0.294940	0.275338	-0.006556	0.000649	0.002637
00024	11892917	-9.797994	-0.288030	0.270452	-0.004990	0.003415	0.000115
00025	11892967	-9.809696	-0.266106	0.269937	-0.006318	-0.001802	0.003009
00026	11893017	-9.793729	-0.296662	0.291328	-0.003429	0.000370	-0.003752
00027	11893067	-9.788671	-0.294409	0.277130	-0.005504	0.002473	0.000207
00028	11893117	-9.817455	-0.277766	0.277048	-0.002029	0.001951	0.000072
00029	11893167	-9.812101	-0.272849	0.286607	-0.005876	0.001076	-0.001401
00030	11893217	-9.825746	-0.280480	0.275897	-0.001937	0.002690	-0.003995
00031	11893267	-9.807428	-0.278377	0.273499	-0.005484	-0.002638	-0.004786
00032	11893317	-9.811071	-0.281660	0.292181	-0.003292	0.001316	-0.000507
00033	11893367	-9.832494	-0.275606	0.278416	-0.002132	-0.003287	-0.002203
00034	11893417	-9.807122	-0.284267	0.275313	-0.003472	0.003894	-0.001743
00035	11893467	-9.796323	-0.272264	0.275470	-0.003668	0.004049	-0.001933
00036	11893517	-9.805418	-0.271712	0.282602	-0.003363	-0.001590	-0.000042
00037	11893567	-9.807364	-0.256823	0.296693	-0.001115	0.000024	-0.003085
00038	11893617	-9.806330	-0.277208	0.285551	-0.003823	0.004116	0.000724
00039	11893667	-9.804298	-0.293212	0.260260	-0.004645	0.001448	-0.002331
00040	11893717	-9.816998	-0.283184	0.289736	-0.004312	0.001099	-0.003233
00041	11893767	-9.817336	-0.293486	0.249199	-0.002228	0.003946	-0.002003
00042	11893817	-9.822980	-0.292010	0.273950	-0.005130	0.002635	-0.001393
00043	11893867	-9.807102	-0.324366	0.275584	-0.003763	0.002817	-0.003865
00044	11893917	-9.804579	-0.303689	0.249679	-0.003956	0.004081	-0.000300
00045	11893967	-9.810050	-0.294593	0.267214	-0.003280	0.000697	-0.002626
00046	11894017	-9.809325	-0.310075	0.259316	-0.004070	0.000718	0.000324
00047	11894067	-9.809421	-0.332856	0.242759	-0.005943	0.003171	-0.001771
00048	11894117	-9.812717	-0.290563	0.268237	-0.001468	-0.001009	-0.001198
00049	11894167	-9.814014	-0.303975	0.273168	-0.001151	0.003257	-0.002202
00050	11894217	-9.806087	-0.321929	0.260012	-0.001898	0.000594	-0.001027
00051	11894267	-9.813048	-0.312672	0.250474	-0.007795	-0.000221	-0.003070
00052	11894317	-9.810792	-0.288332	0.259329	-0.002588	0.001099	-0.002338
00053	11894367	-9.806928	-0.294760	0.263833	-0.005178	0.002147	-0.003228
00054	11894417	-9.810129	-0.316316	0.247103	-0.006143	-0.000542	0.000096
00055	11894467	-9.816372	-0.301302	0.263665	-0.003423	0.000016	-0.003432
00056	11894517	-9.813874	-0.286763	0.254946	-0.004508	0.004654	0.001244
00057	11894567	-9.812459	-0.300668	0.245863	-0.003333	0.001634	-0.000443
00058	11894617	-9.808043	-0.306743	0.276205	-0.005659	-0.002924	-0.000363
00059	11894667	-9.810705	-0.293281	0.255455	-0.002776	0.001994	-0.003459
00060	11894717	-9.811412	-0.294953	0.296804	-0.000695	-0.002926	0.001031
00061	11894767	-9.809123	-0.281780	0.285461	-0.002566	-0.000476	-0.000812
00062	11894817	-9.802562	-0.285078	0.269171	-0.003524	-0.001732	-0.003119
00063	11894867	-9.789922	-0.309964	0.279094	-0.002495	0.002196	-0.001729
00064	11894917	-9.793095	-0.298829	0.268280	-0.002857	0.003843	-0.000145
00065	11894967	-9.783731	-0.314783	0.290837	-0.004376	0.000132	-0.001349
00066	11895017	-9.793119	-0.302688	0.280345	-0.006307	-0.001713	-0.003371
00067	11895067	-9.813479	-0.289496	0.272730	-0.005119	0.002375	-0.002036
00068	11895117	-9.809224	-0.307715	0.315749	-0.004406	0.005933	-0.005417
00069	11895167	-9.800344	-0.313320	0.277207	-0.005802	0.002819	0.000113
00070	11895217	-9.802423	-0.303703	0.285876	-0.001445	0.001673	0.001507
00071	11895267	-9.802723	-0.294895	0.277788	-0.003303	-0.000787	-0.003534
00072	11895317	-9.798971	-0.320742	0.262624	-0.004508	0.001260	-0.000731
00073	11895367	-9.794281	-0.303347	0.276727	-0.004896	0.003251	-0.002321
00074	11895417	-9.811841	-0.305557	0.271453	-0.009187	0.004696	-0.000380
00075	11895467	-9.808419	-0.287327	0.259022	-0.005266	0.004085	-0.001258
00076	11895517	-9.809346	-0.303210	0.287036	-0.005113	0.004151	-0.002570
00077	11895567	-9.806976	-0.301266	0.246805	-0.009677	0.003108	0.000415
00078	11895617	-9.802091	-0.323441	0.272009	-0.004786	0.001064	0.000873
00079	11895667	-9.793386	-0.293794	0.228522	-0.003875	0.001430	-0.002017
00080	11895717	-9.801354	-0.285645	0.229716	-0.001009	0.002702	-0.003105
00081	11895767	-9.792221	-0.283850	0.252551	-0.001155	0.001614	0.000253
00082	11895817	-9.802287	-0.304035	0.225685	-0.000533	0.003039	-0.001693
00083	11895867	-9.816186	-0.310566	0.253314	-0.002307	0.002362	-0.002174
00084	11895917	-9.787759	-0.291497	0.238195	-0.004482	-0.001779	-0.002284
00085	11895967	-9.816516	-0.300317	0.247389	-0.002746	-0.000069	-0.002375
00086	11896017	-9.811993	-0.298830	0.282492	-0.002111	0.003371	-0.000308
00087	11896067	-9.804693	-0.299841	0.260343	-0.002853	-0.001616	-0.001039
00088	11896117	-9.787243	-0.307781	0.266246	-0.005577	-0.002567	-0.000654
00089	11896167	-9.804039	-0.303644	0.277535	-0.006604	-0.000326	-0.001086
00090	11896217	-9.802752	-0.293079	0.278761	-0.000437	-0.000319	-0.003185
00091	11896267	-9.795650	-0.312018	0.285839	-0.002881	0.001223	-0.002048
00092	11896317	-9.805402	-0.296969	0.292991	-0.007428	-0.004239	0.003478
00093	11896367	-9.795249	-0.314611	0.303468	-0.004151	-0.002959	0.000431
00094	11896417	-9.801330	-0.298016	0.290695	-0.002490	-0.000436	0.004382
00095	11896467	-9.825393	-0.294904	0.286855	-0.005758	-0.003060	-0.003758
00096	11896517	-9.803716	-0.303324	0.301526	-0.002091	-0.001443	-0.001553
00097	11896567	-9.819130	-0.274667	0.310186	-0.003716	0.000731	-0.000381
00098	11896617	-9.815056	-0.273640	0.303853	-0.001523	0.001921	-0.002272
00099	11896667	-9.819374	-0.284636	0.293579	-0.003476	0.004251	-0.000235
00100	11896717	-9.811661	-0.292391	0.294379	-0.007262	0.000343	-0.000790
00101	11896767	-9.814930	-0.275744	0.286792	-0.005139	0.004088	-0.001703
00102	11896817	-9.785000	-0.293816	0.298689	-0.004736	0.003415	-0.001967
00103	11896867	-9.803472	-0.279855	0.253017	-0.002434	0.004423	-0.002162
00104	11896917	-9.807189	-0.274106	0.264329	-0.005445	0.001629	-0.002200
00105	11896967	-9.803512	-0.286548	0.271878	-0.004984	0.005218	-0.003015
00106	11897017	-9.802987	-0.306499	0.266429	-0.003526	0.003734	-0.001007
00107	11897067	-9.782094	-0.290318	0.244121	-0.002933	0.001866	-0.000956
00108	11897117	-9.811571	-0.283891	0.261840	-0.005615	0.004883	-0.004136
00109	11897167	-9.784871	-0.299335	0.249548	-0.003543	0.004786	-0.004978
00110	11897217	-9.800886	-0.278400	0.255616	-0.003694	0.002755	-0.002872
00111	11897267	-9.796741	-0.300241	0.245636	-0.005040	0.000898	-0.000860
00112	11897317	-9.795582	-0.316857	0.245278	-0.004048	0.003912	-0.002547
00113	11897367	-9.797857	-0.289222	0.248932	-0.003637	0.000751	-0.003809
00114	11897417	-9.793433	-0.315082	0.241756	-0.003077	0.001509	-0.000928
00115	11897467	-9.793314	-0.291826	0.251627	-0.006348	-0.002620	-0.003956
00116	11897517	-9.805473	-0.289526	0.249858	-0.001609	-0.004663	-0.001794
00117	11897567	-9.809027	-0.295412	0.259302	-0.003035	0.000087	-0.001735
00118	11897617	-9.799755	-0.313969	0.260136	-0.001325	-0.003459	-0.000250
00119	11897667	-9.816465	-0.315534	0.270187	-0.003234	-0.001553	0.001430
00120	11897717	-9.815995	-0.301783	0.282127	-0.002643	0.001770	-0.002845
00121	11897767	-9.832535	-0.287249	0.269291	-0.004721	0.000900	-0.001305
00122	11897817	-9.813385	-0.298563	0.277058	-0.003959	0.000110	-0.000832
00123	11897867	-9.810566	-0.300855	0.287161	-0.006017	0.000099	-0.003069
00124	11897917	-9.798729	-0.299876	0.296217	-0.005347	-0.000726	-0.001924
00125	11897967	-9.804801	-0.292771	0.301371	-0.002088	0.004555	-0.004280
00126	11898017	-9.806767	-0.294425	0.275828	-0.000631	0.001039	-0.000999
00127	11898067	-9.791395	-0.302780	0.271687	-0.003213	-0.000434	-0.003088
00128	11898117	-9.798099	-0.303253	0.278597	-0.004032	0.002665	0.003026
00129	11898167	-9.790280	-0.295059	0.268959	-0.003412	0.005087	-0.000459
00130	11898217	-9.802680	-0.288898	0.258714	-0.002704	0.003904	-0.001846
00131	11898267	-9.802003	-0.307196	0.262862	-0.003635	0.001956	-0.000761
00132	11898317	-9.789714	-0.311143	0.287586	-0.005084	-0.001680	0.002139
00133	11898367	-9.822297	-0.302996	0.263391	-0.004625	0.003903	-0.001612
00134	11898417	-9.797443	-0.289546	0.260379	-0.003732	0.004112	-0.000878
00135	11898467	-9.808580	-0.282789	0.276780	-0.006405	0.000877	0.001452
00136	11898517	-9.798147	-0.277469	0.272225	-0.003692	0.000560	-0.002144
00137	11898567	-9.790396	-0.302818	0.264251	-0.004889	-0.000170	-0.002950
00138	11898617	-9.796021	-0.299003	0.241490	-0.002774	0.001936	-0.002170
00139	11898667	-9.788342	-0.297735	0.269473	-0.002447	0.001841	-0.001600
00140	11898717	-9.817117	-0.293785	0.253592	-0.003952	0.001750	-0.003612
00141	11898767	-9.827886	-0.298894	0.272796	-0.004187	0.001335	-0.000024
00142	11898817	-9.802135	-0.285197	0.277907	-0.002583	0.003066	-0.002202
00143	11898867	-9.816373	-0.289022	0.278545	-0.007491	-0.000240	0.001735
00144	11898917	-9.814141	-0.293809	0.273465	-0.005335	0.000951	-0.002749
00145	11898967	-9.805789	-0.290387	0.263126	-0.005201	0.000829	-0.000056
00146	11899017	-9.810479	-0.294032	0.258768	-0.009213	0.002173	-0.003561
00147	11899067	-9.805044	-0.289519	0.258547	-0.007462	0.003298	-0.004974
00148	11899117	-9.816980	-0.280552	0.243446	-0.007903	0.003495	-0.001475
00149	11899167	-9.788084	-0.304736	0.241709	-0.002101	0.001179	0.002337
00150	11899217	-9.797283	-0.317494	0.251997	-0.002181	0.003331	-0.003868
00151	11899267	-9.806637	-0.297508	0.261927	-0.004420	0.001588	0.000426
00152	11899317	-9.803267	-0.311981	0.245857	-0.006049	0.001325	-0.002490
00153	11899367	-9.838420	-0.296735	0.277196	-0.005139	0.001121	-0.001205
00154	11899417	-9.813644	-0.312273	0.269200	-0.006584	0.000992	-0.003546
00155	11899467	-9.810709	-0.299982	0.270843	-0.005748	0.001617	-0.005496
00156	11899517	-9.795720	-0.294476	0.261392	-0.001667	0.001438	-0.001282
00157	11899567	-9.800889	-0.298576	0.258049	-0.004623	0.001837	-0.000601
00158	11899617	-9.799283	-0.314318	0.260542	-0.005768	-0.001704	-0.003085
00159	11899667	-9.791013	-0.307295	0.258041	-0.001204	0.002731	-0.002752
00160	11899717	-9.805140	-0.278440	0.289707	-0.004326	0.001749	-0.000116
00161	11899767	-9.783476	-0.309814	0.276075	-0.005026	-0.002818	-0.002515
00162	11899817	-9.787709	-0.309155	0.266921	-0.000378	-0.000953	0.000878
00163	11899867	-9.810967	-0.320055	0.275407	-0.003600	-0.001313	-0.002512
00164	11899917	-9.823009	-0.294058	0.282999	-0.006565	0.003603	-0.002608
00165	11899967	-9.801398	-0.296670	0.299126	-0.005174	0.000817	-0.003782
00166	11900017	-9.820316	-0.300120	0.284249	-0.004860	0.001546	0.001509
00167	11900067	-9.811973	-0.314805	0.273683	-0.004028	0.002427	0.000419
00168	11900117	-9.801516	-0.297679	0.281048	-0.006279	0.002841	0.001164
00169	11900167	-9.793035	-0.288776	0.277813	-0.003929	0.004530	0.000847
00170	11900217	-9.796630	-0.284119	0.272388	-0.004587	0.002503	-0.004704
00171	11900267	-9.801890	-0.287584	0.282757	-0.005209	0.002242	-0.001401
00172	11900317	-9.800105	-0.281336	0.251530	-0.004256	0.003651	0.001071
00173	11900367	-9.806821	-0.295782	0.249447	-0.005492	0.000842	-0.003685
00174	11900417	-9.822507	-0.280343	0.251166	-0.008827	0.004074	-0.005640
00175	11900467	-9.803357	-0.309214	0.255262	-0.003561	-0.000440	-0.001203
00176	11900517	-9.815039	-0.285118	0.247119	-0.002914	0.002344	-0.002593
00177	11900567	-9.795864	-0.293123	0.242951	-0.003247	0.000692	-0.002060
00178	11900617	-9.785844	-0.300699	0.255898	-0.005105	-0.001176	-0.000621
00179	11900667	-9.798929	-0.293405	0.239196	-0.004560	0.000469	-0.004524
00180	11900717	-9.801550	-0.294747	0.241635	-0.004886	-0.002138	-0.000016
00181	11900767	-9.803482	-0.296542	0.249283	-0.002701	-0.002066	0.002188
00182	11900817	-9.801616	-0.302522	0.267949	-0.006418	-0.001198	-0.001097
00183	11900867	-9.792848	-0.310750	0.254930	-0.002661	0.001416	0.000057
00184	11900917	-9.790959	-0.305215	0.283176	-0.004712	0.001771	-0.000189
00185	11900967	-9.816264	-0.309347	0.263477	-0.003796	-0.001290	-0.002640
00186	11901017	-9.821270	-0.311835	0.268303	-0.004799	-0.001851	-0.002772
00187	11901067	-9.839217	-0.297885	0.293769	-0.004188	-0.000478	0.002304
00188	11901117	-9.817650	-0.294317	0.263263	-0.005972	-0.000705	0.001244
00189	11901167	-9.796202	-0.307749	0.289866	-0.006905	0.002605	0.001231
00190	11901217	-9.817653	-0.288435	0.292020	-0.003726	-0.001086	-0.000848
00191	11901267	-9.807483	-0.300816	0.289268	-0.003339	0.001793	0.000027
00192	11901317	-9.797335	-0.309829	0.283682	-0.003048	0.001802	0.000575
00193	11901367	-9.816135	-0.298485	0.298361	-0.000750	0.003704	-0.003197
00194	11901417	-9.801376	-0.295061	0.292155	-0.000966	-0.000558	-0.002199
00195	11901467	-9.780328	-0.318624	0.286228	-0.002078	0.001495	0.000409
00196	11901517	-9.800955	-0.304180	0.280577	-0.002270	0.002258	-0.002727
00197	11901567	-9.810596	-0.314061	0.279542	-0.002295	0.005037	-0.002966
00198	11901617	-9.808885	-0.294408	0.271308	-0.006413	0.000928	-0.001438
00199	11901667	-9.818130	-0.302207	0.280906	-0.004435	0.001094	-0.000130
00200	11901717	-9.799401	-0.298643	0.248789	-0.004567	-0.000975	-0.001360
00201	11901767	-9.813051	-0.289726	0.242584	-0.003929	0.000098	-0.001766
00202	11901817	-9.795327	-0.307324	0.261038	-0.002424	0.003262	0.000291
00203	11901867	-9.795180	-0.297994	0.258581	-0.003858	-0.000087	0.001141
00204	11901917	-9.779387	-0.291878	0.272078	-0.001580	0.003885	-0.001088
00205	11901967	-9.801838	-0.304626	0.269847	-0.001277	0.000220	0.000498
00206	11902017	-9.804169	-0.305390	0.263664	-0.004574	-0.001909	-0.001973
00207	11902067	-9.803512	-0.301390	0.264267	-0.002532	0.003413	-0.003808
00208	11902117	-9.819183	-0.298877	0.251487	-0.004929	-0.001591	-0.000113
00209	11902167	-9.816185	-0.304577	0.279069	-0.003895	-0.000060	-0.002253
00210	11902217	-9.800289	-0.296009	0.271495	-0.005153	0.000303	-0.002698
00211	11902267	-9.822200	-0.285737	0.250292	-0.001243	0.002985	-0.004130
00212	11902317	-9.812796	-0.285672	0.270356	-0.006700	0.000633	-0.002338
00213	11902367	-9.787004	-0.288793	0.264978	-0.006969	0.000081	-0.002083
00214	11902417	-9.795271	-0.295632	0.268839	-0.004680	-0.000363	-0.000712
00215	11902467	-9.796850	-0.298226	0.259345	-0.003760	-0.003214	0.000551
00216	11902517	-9.806113	-0.289893	0.276270	-0.005642	0.002850	-0.000533
00217	11902567	-9.797798	-0.299039	0.259442	-0.002611	0.002098	-0.000577
00218	11902617	-9.812834	-0.301793	0.270272	-0.006168	0.003353	-0.002069
00219	11902667	-9.803925	-0.288283	0.267336	-0.002464	-0.002450	0.001288
00220	11902717	-9.817464	-0.296471	0.277641	-0.007724	-0.001157	0.000315
00221	11902767	-9.821703	-0.291054	0.258020	-0.006206	-0.002878	-0.001684
00222	11902817	-9.808450	-0.291260	0.271683	-0.005173	0.003278	-0.000952
00223	11902867	-9.791125	-0.309520	0.280575	-0.003561	0.000298	-0.003438
00224	11902917	-9.791965	-0.287977	0.257606	-0.004992	0.000703	0.002305
00225	11902967	-9.797638	-0.300274	0.274984	-0.003701	0.004072	-0.001942
00226	11903017	-9.790487	-0.298652	0.271975	-0.006910	-0.000659	0.000027
00227	11903067	-9.797983	-0.306009	0.265330	-0.001713	-0.000183	-0.001332
00228	11903117	-9.800856	-0.297646	0.290702	-0.007028	0.001208	-0.001150
00229	11903167	-9.819185	-0.318798	0.292743	-0.001552	-0.002083	0.000133
00230	11903217	-9.811517	-0.317783	0.283305	-0.004838	-0.000428	-0.000297
00231	11903267	-9.820245	-0.304381	0.281862	-0.007007	0.002566	0.000782
00232	11903317	-9.814121	-0.294060	0.271053	-0.005386	0.001458	-0.004738
00233	11903367	-9.797272	-0.305243	0.264052	-0.003889	0.002167	0.000034
00234	11903417	-9.797951	-0.293296	0.272623	-0.004354	0.001711	0.000195
00235	11903467	-9.794942	-0.281473	0.263509	-0.008069	0.002939	0.000339
00236	11903517	-9.785787	-0.308725	0.263004	-0.003546	0.002009	-0.003622
00237	11903567	-9.798095	-0.282197	0.274914	-0.003916	-0.002384	-0.001336
00238	11903617	-9.810403	-0.272730	0.282072	-0.005747	0.001200	-0.000764
00239	11903667	-9.803984	-0.294549	0.249679	-0.005145	0.002881	-0.004444
00240	11903717	-9.807971	-0.306715	0.264604	-0.003394	0.002237	-0.004837
00241	11903767	-9.810036	-0.300424	0.278186	-0.000734	0.002550	-0.000034
00242	11903817	-9.816921	-0.285265	0.244037	-0.004127	0.001325	-0.000639
00243	11903867	-9.812236	-0.273001	0.270083	-0.005618	0.002304	0.001516
00244	11903917	-9.805749	-0.290352	0.257324	-0.002879	0.004412	-0.000818
00245	11903967	-9.789554	-0.294722	0.266691	-0.004651	-0.001329	0.000208
00246	11904017	-9.793816	-0.274343	0.259265	-0.002359	-0.000231	-0.002515
00247	11904067	-9.801860	-0.278977	0.259970	-0.002077	0.001067	-0.002701
00248	11904117	-9.791005	-0.293585	0.267147	-0.004951	0.000148	-0.000454
00249	11904167	-9.806036	-0.310671	0.268462	-0.003254	0.000051	0.000277
00250	11904217	-9.798929	-0.307277	0.267182	-0.000965	0.000506	-0.001810
00251	11904267	-9.817883	-0.297580	0.270673	-0.010101	-0.000979	-0.002017
00252	11904317	-9.821798	-0.306627	0.267306	-0.002451	0.000935	-0.000904
00253	11904367	-9.831455	-0.302225	0.279824	-0.004043	0.000513	-0.003912
00254	11904417	-9.813709	-0.291930	0.276623	-0.004825	-0.000945	-0.001422
00255	11904467	-9.811659	-0.282903	0.273440	-0.003777	0.002297	-0.003583
00256	11904517	-9.797477	-0.291372	0.308614	-0.002042	0.000967	-0.003920
00257	11904567	-9.786468	-0.301683	0.281241	-0.001775	-0.000544	-0.004440
00258	11904617	-9.783328	-0.316991	0.265852	-0.004201	0.000580	-0.002346
00259	11904667	-9.795904	-0.299386	0.262584	-0.003998	0.003127	-0.004641
00260	11904717	-9.786831	-0.308924	0.278149	-0.002304	0.000358	-0.000591
00261	11904767	-9.808666	-0.295578	0.277507	-0.002857	0.000935	0.001758
00262	11904817	-9.810270	-0.301686	0.279429	-0.004385	0.002186	-0.003937
00263	11904867	-9.814349	-0.296384	0.273437	-0.003254	0.003149	-0.001565
00264	11904917	-9.823539	-0.308686	0.282078	-0.002667	0.003003	0.000387
00265	11904967	-9.811181	-0.300080	0.269160	-0.004877	-0.001337	-0.002864
00266	11905017	-9.805334	-0.300025	0.286687	-0.002742	-0.002167	-0.000795
00267	11905067	-9.812054	-0.288638	0.272325	-0.004113	-0.001653	-0.005911
00268	11905117	-9.784180	-0.301263	0.257064	-0.003517	-0.000025	-0.002447
00269	11905167	-9.798706	-0.289261	0.271705	-0.001792	0.001367	-0.000973
00270	11905217	-9.799281	-0.293857	0.257575	-0.005361	0.001815	-0.002174
00271	11905267	-9.796357	-0.305345	0.271525	-0.002545	-0.000195	-0.000402
00272	11905317	-9.799098	-0.293670	0.266925	-0.003292	0.001403	-0.000417
00273	11905367	-9.806828	-0.313741	0.247757	-0.008563	0.002954	-0.002322
00274	11905417	-9.820054	-0.293509	0.266093	-0.006385	0.000962	-0.002045
00275	11905467	-9.797402	-0.309382	0.254757	-0.002327	0.000165	0.000757
00276	11905517	-9.804230	-0.289961	0.279891	-0.005617	0.000011	-0.000548
00277	11905567	-9.809716	-0.296584	0.257377	-0.001627	0.003143	-0.001346
00278	11905617	-9.796490	-0.288750	0.258311	-0.003861	0.001140	0.000157
00279	11905667	-9.781087	-0.286711	0.267354	-0.003798	-0.000355	-0.003665
00280	11905717	-9.781695	-0.293814	0.263993	-0.007699	-0.000327	-0.004520
00281	11905767	-9.784870	-0.287418	0.264514	-0.005444	-0.001705	-0.002676
00282	11905817	-9.820234	-0.283710	0.275918	-0.004569	0.000958	-0.003875
00283	11905867	-9.790482	-0.315664	0.266016	-0.002615	-0.003264	-0.002241
00284	11905917	-9.803339	-0.298547	0.270277	-0.004824	0.003415	0.000333
00285	11905967	-9.809457	-0.292394	0.282980	-0.000838	0.002641	-0.001349
00286	11906017	-9.827462	-0.294411	0.272013	-0.004973	0.003760	-0.002803
00287	11906067	-9.807416	-0.306147	0.250870	-0.009175	0.002170	-0.001425
00288	11906117	-9.798635	-0.295001	0.271701	-0.002503	0.000416	-0.002799
00289	11906167	-9.799738	-0.292357	0.251337	-0.006503	0.001506	-0.002779
00290	11906217	-9.795717	-0.284456	0.280164	-0.005911	-0.000131	-0.004008
00291	11906267	-9.791155	-0.305113	0.276306	-0.003508	0.000172	0.000373
00292	11906317	-9.796743	-0.292259	0.268170	-0.002758	-0.000392	-0.000238
00293	11906367	-9.793383	-0.312538	0.265968	-0.005732	0.000691	0.001954
00294	11906417	-9.807878	-0.296070	0.266556	-0.000244	-0.001518	-0.005890
00295	11906467	-9.819674	-0.285147	0.265137	-0.003617	0.000727	0.003009
00296	11906517	-9.818818	-0.306189	0.285363	-0.003386	-0.004219	-0.003459
00297	11906567	-9.813917	-0.305930	0.262224	0.000159	0.001340	-0.000366
00298	11906617	-9.803994	-0.310952	0.284984	-0.002094	-0.001356	-0.002647
00299	11906667	-9.822145	-0.309140	0.290544	-0.003032	0.000114	-0.001678
00300	11906717	-9.798388	-0.306657	0.294257	-0.006016	0.001617	-0.000154
00301	11906767	-9.807489	-0.288444	0.265323	-0.004809	0.001337	-0.004324
00302	11906817	-9.782351	-0.303416	0.274493	-0.003520	0.002266	-0.002630
00303	11906867	-9.792538	-0.299945	0.258673	-0.002629	0.004509	-0.002938
00304	11906917	-9.803455	-0.297504	0.286139	-0.001835	0.001358	-0.004651
00305	11906967	-9.804068	-0.295111	0.264761	-0.004075	0.000849	0.000986
00306	11907017	-9.834143	-0.288935	0.262329	-0.005076	-0.001246	-0.003501
00307	11907067	-9.810197	-0.301469	0.266969	-0.001352	0.001536	-0.001992
00308	11907117	-9.806931	-0.303865	0.283291	-0.005396	-0.000253	-0.003883
00309	11907167	-9.805158	-0.298760	0.255050	-0.001534	-0.002693	0.002213
00310	11907217	-9.799593	-0.305757	0.255349	-0.007675	0.003888	0.003836
00311	11907267	-9.790536	-0.299776	0.281533	-0.002325	-0.000964	0.000207
00312	11907317	-9.802232	-0.274661	0.273464	-0.003795	-0.001188	-0.000947
00313	11907367	-9.790994	-0.299911	0.278646	-0.007189	0.000307	0.001443
00314	11907417	-9.807341	-0.294280	0.253344	-0.005537	-0.000568	0.001532
00315	11907467	-9.787457	-0.302424	0.250037	-0.006846	0.002174	-0.004382
00316	11907517	-9.799032	-0.303178	0.274596	-0.006227	0.000700	-0.003524
00317	11907567	-9.804843	-0.315309	0.276024	-0.004507	0.002124	-0.002208
00318	11907617	-9.810782	-0.298739	0.279745	-0.003476	-0.000753	0.001557
00319	11907667	-9.827826	-0.287316	0.279056	-0.007617	0.000752	0.000680
00320	11907717	-9.815474	-0.300699	0.271049	-0.007582	0.002164	-0.003286
00321	11907767	-9.802262	-0.294882	0.281099	-0.004882	0.002254	0.001419
00322	11907817	-9.802108	-0.302636	0.271058	-0.004246	-0.002071	-0.002266
00323	11907867	-9.806534	-0.295137	0.278550	-0.005355	-0.001249	-0.000491
00324	11907917	-9.805292	-0.294864	0.269817	-0.006875	0.001078	-0.002849
00325	11907967	-9.799221	-0.277771	0.293295	-0.005623	0.003296	-0.002392
00326	11908017	-9.794071	-0.316049	0.269331	-0.006511	0.000566	-0.004003
00327	11908067	-9.793126	-0.313698	0.265694	-0.003059	0.002220	0.001507
00328	11908117	-9.811185	-0.280075	0.269428	-0.007564	0.000041	0.001544
00329	11908167	-9.821871	-0.297175	0.260129	-0.000972	-0.002200	0.000713
00330	11908217	-9.829532	-0.278109	0.266105	-0.005417	-0.000177	0.000287
00331	11908267	-9.813378	-0.278524	0.274601	-0.004251	0.003684	0.002419
00332	11908317	-9.802220	-0.305506	0.256385	-0.005614	0.000487	-0.003336
00333	11908367	-9.791514	-0.307473	0.262629	-0.005905	0.001107	0.001603
00334	11908417	-9.807238	-0.285963	0.257803	-0.004252	0.004155	-0.003769
00335	11908467	-9.778891	-0.300090	0.286532	-0.007479	0.000300	-0.000127
00336	11908517	-9.790095	-0.288388	0.263249	-0.002771	0.000893	-0.002415
00337	11908567	-9.801880	-0.301623	0.271710	-0.005276	0.002604	0.000457
00338	11908617	-9.810167	-0.302456	0.265093	-0.005561	-0.000161	-0.004684
00339	11908667	-9.806568	-0.284981	0.263058	-0.004695	0.004284	-0.001358
00340	11908717	-9.799667	-0.307297	0.272182	-0.005966	0.001908	-0.000119
00341	11908767	-9.819853	-0.312046	0.271944	-0.006139	-0.002871	-0.000145
00342	11908817	-9.808861	-0.314786	0.270539	-0.001986	0.000232	-0.002769
00343	11908867	-9.805770	-0.300744	0.282336	-0.007278	-0.000447	-0.004618
00344	11908917	-9.809500	-0.297137	0.261500	-0.002532	0.000315	-0.002383
00345	11908967	-9.807459	-0.295119	0.273339	-0.003546	0.005466	-0.001357
00346	11909017	-9.802970	-0.288642	0.267220	-0.005797	0.001048	0.003912
00347	11909067	-9.799478	-0.298579	0.261439	-0.002881	0.000481	0.000118
00348	11909117	-9.784222	-0.303329	0.269026	-0.005458	0.000748	-0.002632
00349	11909167	-9.805208	-0.302483	0.270836	-0.005450	-0.000576	-0.004077
00350	11909217	-9.811852	-0.303628	0.269219	-0.003869	-0.001802	-0.000403
00351	11909267	-9.822736	-0.299180	0.249620	-0.005299	-0.002020	-0.000172
00352	11909317	-9.814240	-0.292699	0.249506	-0.003617	0.002433	-0.001182
00353	11909367	-9.810402	-0.296264	0.251940	-0.005450	0.000458	-0.002629
00354	11909417	-9.805117	-0.293239	0.277256	-0.001682	0.000919	-0.000875
00355	11909467	-9.810203	-0.305103	0.277080	-0.007783	0.001043	0.002030
00356	11909517	-9.795511	-0.301477	0.280559	-0.006042	0.000969	-0.001601
00357	11909567	-9.790256	-0.304511	0.283181	-0.002871	0.002190	-0.000067
00358	11909617	-9.807760	-0.297676	0.289034	-0.004496	0.001096	0.000094
00359	11909667	-9.784381	-0.291719	0.271417	-0.005030	0.001438	-0.001891
00360	11909717	-9.822618	-0.294616	0.260372	-0.004610	0.000606	0.000578
00361	11909767	-9.817455	-0.290539	0.262944	-0.001014	0.001025	-0.001324
00362	11909817	-9.818052	-0.294378	0.292188	-0.003005	0.002445	-0.001185
00363	11909867	-9.797523	-0.326481	0.270117	-0.006957	-0.002443	-0.002223
00364	11909917	-9.802083	-0.306490	0.275302	-0.003181	0.002857	-0.001305
00365	11909967	-9.807852	-0.300761	0.273415	-0.004549	0.002737	0.000456
00366	11910017	-9.805096	-0.294369	0.275574	-0.002507	0.002966	0.000516
00367	11910067	-9.791988	-0.298808	0.283392	-0.004124	0.002484	-0.000248
00368	11910117	-9.813265	-0.286339	0.270124	-0.006055	0.001900	-0.000890
00369	11910167	-9.806471	-0.281566	0.279343	-0.006257	0.003856	-0.005779
00370	11910217	-9.816880	-0.282082	0.268453	-0.003708	0.001586	-0.000414
00371	11910267	-9.807633	-0.295157	0.262871	-0.004260	0.001704	-0.000924
00372	11910317	-9.806177	-0.297368	0.263771	-0.004971	0.003756	-0.002644
00373	11910367	-9.818331	-0.291588	0.253124	-0.004639	-0.000560	0.000216
00374	11910417	-9.798154	-0.294694	0.270505	-0.005279	0.001723	0.001189
00375	11910467	-9.811514	-0.309985	0.266051	-0.002818	-0.000622	-0.000399
00376	11910517	-9.792889	-0.317710	0.275561	-0.007087	0.000177	0.000929
00377	11910567	-9.799634	-0.304844	0.259684	-0.008723	0.002009	-0.003797
00378	11910617	-9.798933	-0.307027	0.267444	-0.005020	0.001302	-0.003137
00379	11910667	-9.803612	-0.288158	0.253032	-0.004758	-0.000018	-0.003114
00380	11910717	-9.823014	-0.283310	0.262898	-0.002034	0.005097	-0.003187
00381	11910767	-9.809219	-0.293620	0.286114	-0.004569	0.002382	0.001127
00382	11910817	-9.807978	-0.314702	0.281753	-0.006500	0.003864	0.000245
00383	11910867	-9.783086	-0.314447	0.261124	-0.002781	0.000544	0.002109
00384	11910917	-9.837579	-0.283056	0.268519	-0.000306	0.003102	-0.000702
00385	11910967	-9.817794	-0.309768	0.280055	0.000177	-0.000247	-0.000340
00386	11911017	-9.816513	-0.293010	0.270622	-0.006909	-0.000469	0.000479
00387	11911067	-9.806049	-0.287289	0.261742	-0.006275	0.000703	-0.000986
00388	11911117	-9.792796	-0.303585	0.269566	-0.004739	-0.000173	0.001369
00389	11911167	-9.797848	-0.290565	0.289729	-0.004626	-0.000145	-0.002378
00390	11911217	-9.806802	-0.290859	0.274767	-0.004283	-0.004008	-0.001884
00391	11911267	-9.791025	-0.287725	0.297873	-0.006774	-0.000990	-0.002342
00392	11911317	-9.790201	-0.300458	0.266111	-0.006593	0.002664	-0.001976
00393	11911367	-9.823208	-0.286184	0.260447	-0.007151	0.003809	-0.005584
00394	11911417	-9.826424	-0.301012	0.271104	-0.006583	0.003180	-0.002861
00395	11911467	-9.806765	-0.313389	0.275804	-0.007563	0.000972	-0.000668
00396	11911517	-9.810701	-0.285354	0.278511	-0.001188	0.000301	-0.003634
00397	11911567	-9.789329	-0.296507	0.272134	-0.006153	0.001802	-0.000090
00398	11911617	-9.810787	-0.290236	0.262727	-0.005986	0.000678	-0.000476
00399	11911667	-9.787350	-0.281978	0.269857	-0.003567	-0.003155	-0.000089
00400	11911717	-9.791021	-0.299843	0.282382	-0.004407	0.004148	-0.003418
00401	11911767	-9.788180	-0.268853	0.260243	-0.007039	0.006558	-0.002879
00402	11911817	-9.781405	-0.300028	0.268265	-0.005297	0.001746	-0.004322
00403	11911867	-9.809710	-0.288576	0.278287	-0.004706	-0.000694	-0.002057
00404	11911917	-9.819478	-0.285738	0.272571	-0.003861	0.000066	-0.001510
00405	11911967	-9.814103	-0.277941	0.273899	-0.006545	0.001853	-0.004347
00406	11912017	-9.817748	-0.311938	0.278063	-0.005239	0.002270	-0.000757
00407	11912067	-9.808443	-0.310485	0.271521	-0.005394	0.001107	-0.000605
00408	11912117	-9.801972	-0.313482	0.270837	-0.006870	0.000142	-0.001567
00409	11912167	-9.815899	-0.302960	0.268249	-0.004481	-0.000492	-0.000488
00410	11912217	-9.789507	-0.302947	0.274721	-0.005258	0.004012	-0.000113
00411	11912267	-9.796505	-0.294666	0.273395	-0.003337	0.000823	0.000221
00412	11912317	-9.806709	-0.296981	0.272288	-0.004371	-0.001073	-0.001068
00413	11912367	-9.817690	-0.277061	0.274365	-0.008991	0.003424	-0.003113
00414	11912417	-9.799036	-0.302774	0.275168	-0.003457	-0.001372	0.001396
00415	11912467	-9.795502	-0.297761	0.270945	-0.004010	0.001805	-0.001439
00416	11912517	-9.808303	-0.296369	0.259589	0.000754	-0.000439	-0.003063
00417	11912567	-9.806986	-0.291369	0.266712	-0.004163	0.000677	-0.000196
00418	11912617	-9.811032	-0.285075	0.253849	-0.000875	0.000764	0.000215
00419	11912667	-9.807112	-0.280744	0.266489	-0.004072	0.000904	0.001023
00420	11912717	-9.809598	-0.278516	0.277671	-0.004017	0.003166	-0.000017
00421	11912767	-9.801970	-0.295553	0.272939	-0.006215	0.000633	-0.002015
00422	11912817	-9.794202	-0.316126	0.291087	-0.004435	0.002153	-0.001504
00423	11912867	-9.799666	-0.285199	0.263426	-0.006684	0.006467	-0.003458
00424	11912917	-9.810913	-0.294936	0.254926	-0.007065	0.003430	-0.001134
00425	11912967	-9.802033	-0.289576	0.271970	-0.008301	0.000723	-0.002810
00426	11913017	-9.814223	-0.286780	0.273908	-0.004476	0.003210	-0.004697
00427	11913067	-9.794605	-0.297604	0.280365	-0.002730	-0.000232	-0.000300
00428	11913117	-9.808784	-0.293484	0.291388	-0.003026	-0.000016	-0.001226
00429	11913167	-9.788918	-0.305943	0.262583	-0.004008	0.001381	-0.004133
00430	11913217	-9.807200	-0.295271	0.271167	-0.004029	0.003423	-0.001428
00431	11913267	-9.795739	-0.286595	0.286566	-0.005739	0.002971	-0.000592
00432	11913317	-9.795627	-0.300442	0.257316	-0.002697	0.000666	-0.002158
00433	11913367	-9.813185	-0.287389	0.298404	-0.007685	0.000945	0.002191
00434	11913417	-9.808832	-0.296176	0.266267	-0.007405	-0.000093	-0.000544
00435	11913467	-9.806741	-0.293882	0.269913	-0.002874	-0.002754	0.000074
00436	11913517	-9.790833	-0.307207	0.267428	-0.006629	-0.000632	-0.002728
00437	11913567	-9.794588	-0.311701	0.266923	-0.003661	0.000812	-0.001575
00438	11913617	-9.806560	-0.312940	0.280140	-0.005560	0.000265	-0.000738
00439	11913667	-9.795123	-0.306689	0.266641	-0.005002	0.002985	-0.000373
00440	11913717	-9.801598	-0.296311	0.252736	-0.005411	0.002887	0.001006
00441	11913767	-9.814925	-0.279749	0.256314	-0.006009	-0.001716	-0.000776
00442	11913817	-9.801270	-0.281824	0.249159	-0.005411	0.002752	0.000333
00443	11913867	-9.796127	-0.307068	0.275093	-0.003097	0.000206	-0.001132
00444	11913917	-9.812102	-0.298076	0.261489	-0.006306	0.000539	-0.001951
00445	11913967	-9.809197	-0.309585	0.276101	-0.006007	0.000260	0.001153
00446	11914017	-9.811197	-0.280698	0.271776	-0.004125	0.002450	-0.001689
00447	11914067	-9.826427	-0.295896	0.261615	-0.001822	-0.001866	-0.002296
00448	11914117	-9.822043	-0.264423	0.259635	-0.003434	-0.000082	0.001597
00449	11914167	-9.812243	-0.299186	0.285690	-0.003511	0.001037	-0.003206
00450	11914217	-9.799500	-0.304172	0.276495	-0.003916	0.001544	-0.004549
00451	11914267	-9.789373	-0.312699	0.273480	-0.002961	-0.003404	-0.002401
00452	11914317	-9.783103	-0.297878	0.269299	-0.003745	-0.000777	-0.002896
00453	11914367	-9.771912	-0.316914	0.268913	-0.004567	0.002053	-0.002016
00454	11914417	-9.805977	-0.290765	0.296670	-0.001632	0.002360	-0.003912
00455	11914467	-9.783561	-0.297505	0.265264	-0.005737	-0.001159	-0.000104
00456	11914517	-9.801898	-0.301663	0.273717	-0.003045	-0.000662	-0.002188
00457	11914567	-9.813713	-0.291477	0.277051	-0.003679	0.001490	-0.000864
00458	11914617	-9.827203	-0.295326	0.271876	-0.006162	0.001221	0.000360
00459	11914667	-9.817405	-0.302428	0.279539	-0.004233	-0.000098	-0.000005
00460	11914717	-9.814481	-0.299324	0.262478	-0.005846	-0.000001	-0.002306
00461	11914767	-9.832819	-0.272093	0.284780	-0.001819	0.001402	0.000800
00462	11914817	-9.795657	-0.289623	0.279901	-0.004698	0.000112	-0.003046
00463	11914867	-9.801143	-0.290566	0.244680	-0.005078	-0.002085	-0.002319
00464	11914917	-9.797489	-0.288669	0.265880	-0.005294	0.003046	-0.000755
00465	11914967	-9.792279	-0.290967	0.274544	-0.004203	0.001635	-0.003136
00466	11915017	-9.790347	-0.294963	0.279838	-0.005260	-0.000120	-0.001704
00467	11915067	-9.796526	-0.307368	0.263585	-0.003165	-0.000729	-0.001360
00468	11915117	-9.813273	-0.293089	0.247060	-0.004633	0.003479	-0.000017
00469	11915167	-9.827414	-0.284383	0.282414	-0.005990	0.000673	-0.001407
00470	11915217	-9.813879	-0.293304	0.268629	-0.001928	0.001480	-0.004523
00471	11915267	-9.822175	-0.288545	0.252742	-0.003067	-0.000759	-0.001772
00472	11915317	-9.802213	-0.299431	0.281195	-0.004078	-0.002361	-0.002391
00473	11915367	-9.790158	-0.316144	0.252033	-0.006382	0.000895	-0.000925
00474	11915417	-9.799854	-0.303318	0.254890	-0.004026	0.002123	-0.003809
00475	11915467	-9.799015	-0.302733	0.272032	-0.004714	-0.001237	0.000341
00476	11915517	-9.821838	-0.292115	0.283098	-0.007993	0.001512	-0.000146
00477	11915567	-9.795402	-0.290038	0.277858	-0.005894	0.003871	-0.001070
00478	11915617	-9.813288	-0.282632	0.267785	-0.003459	-0.001869	-0.004759
00479	11915667	-9.815980	-0.301253	0.278542	-0.005094	0.000493	-0.002180
00480	11915717	-9.805094	-0.287560	0.261723	-0.001568	0.000498	-0.000394
00481	11915767	-9.821583	-0.288678	0.273564	-0.006983	-0.000183	-0.001116
00482	11915817	-9.827629	-0.304875	0.281692	-0.001193	0.002056	0.001025
00483	11915867	-9.794587	-0.320093	0.283427	-0.001536	0.001333	-0.002538
00484	11915917	-9.799518	-0.299041	0.268651	-0.005459	-0.001192	-0.003023
00485	11915967	-9.804247	-0.290494	0.285225	-0.004705	-0.000662	-0.002473
00486	11916017	-9.801039	-0.307161	0.260419	-0.006167	0.003354	-0.001072
00487	11916067	-9.779952	-0.309527	0.284028	-0.005230	0.003747	-0.005079
00488	11916117	-9.799809	-0.276001	0.268306	-0.001198	0.001824	-0.001923
00489	11916167	-9.809356	-0.300579	0.284506	-0.004050	0.000702	-0.004006
00490	11916217	-9.810821	-0.288860	0.265537	-0.002906	0.001209	-0.002342
00491	11916267	-9.800192	-0.303534	0.270954	-0.004046	0.004034	-0.001653
00492	11916317	-9.810565	-0.298590	0.283032	-0.006080	0.000545	-0.000864
00493	11916367	-9.820762	-0.294904	0.268465	-0.007011	0.000791	0.001159
00494	11916417	-9.805832	-0.288332	0.266710	-0.007472	0.000069	-0.001374
00495	11916467	-9.803595	-0.298688	0.272008	-0.004523	0.000632	-0.003655
00496	11916517	-9.796967	-0.295487	0.272479	-0.002714	-0.000758	-0.002194
00497	11916567	-9.805701	-0.284786	0.277002	-0.003473	0.002812	-0.004541
00498	11916617	-9.772126	-0.312106	0.255345	-0.003970	-0.001382	0.002003
00499	11916667	-9.780084	-0.306216	0.259900	-0.004624	0.000792	-0.002250
00500	11916717	-9.794938	-0.312069	0.287297	-0.004427	-0.000269	-0.002702
00501	11916767	-9.802472	-0.306251	0.259807	-0.000998	-0.000530	-0.002547
00502	11916817	-9.810766	-0.289433	0.259343	-0.003302	-0.000279	-0.000746
00503	11916867	-9.823257	-0.305040	0.268444	-0.005417	0.002684	-0.003288
00504	11916917	-9.803053	-0.295758	0.256899	-0.001135	0.000822	-0.002318
00505	11916967	-9.808129	-0.323012	0.284277	-0.002564	-0.000489	-0.000176
00506	11917017	-9.810191	-0.298817	0.260776	-0.005364	0.000809	-0.003970
00507	11917067	-9.798883	-0.294765	0.272683	-0.005352	0.000621	-0.002435
00508	11917117	-9.787600	-0.300259	0.268818	-0.005040	-0.000052	-0.000614
00509	11917167	-9.815856	-0.284861	0.263429	-0.008230	-0.000270	-0.002302
00510	11917217	-9.808677	-0.296257	0.281330	-0.004240	0.001864	-0.002110
00511	11917267	-9.787905	-0.291211	0.261644	-0.004798	-0.001053	-0.003790
00512	11917317	-9.810242	-0.289928	0.290477	-0.003807	0.001523	-0.000349
00513	11917367	-9.816702	-0.300552	0.277811	-0.000818	0.001989	-0.001634
00514	11917417	-9.810616	-0.288698	0.270371	-0.002685	0.000408	-0.000939
00515	11917467	-9.819679	-0.285995	0.267756	-0.001551	0.000720	-0.002254
00516	11917517	-9.815246	-0.298182	0.268769	-0.006082	-0.001487	0.000763
00517	11917567	-9.813239	-0.308661	0.274165	-0.004482	0.001740	0.001861
00518	11917617	-9.816784	-0.310566	0.272491	-0.004651	0.003126	0.000557
00519	11917667	-9.805355	-0.287131	0.263308	-0.006563	0.002662	-0.001171
00520	11917717	-9.783812	-0.280765	0.272294	-0.008059	0.002514	0.001010
00521	11917767	-9.778461	-0.305063	0.264117	-0.006417	0.003985	-0.002255
00522	11917817	-9.789292	-0.299917	0.272345	-0.003883	0.003739	-0.003929
00523	11917867	-9.791216	-0.311697	0.260698	-0.004345	0.000516	0.002080
00524	11917917	-9.798363	-0.293019	0.262865	-0.005038	0.001412	0.004298
00525	11917967	-9.811981	-0.293679	0.271530	-0.007355	0.001556	0.000972
00526	11918017	-9.799320	-0.296576	0.269294	-0.005304	0.001202	-0.002082
00527	11918067	-9.814515	-0.275100	0.256647	-0.004432	0.001825	-0.004641
00528	11918117	-9.815590	-0.288917	0.266463	-0.006612	0.003378	-0.000461
00529	11918167	-9.816882	-0.298399	0.263125	-0.005000	0.002690	-0.001688
00530	11918217	-9.782583	-0.313961	0.255729	-0.002586	0.005481	-0.001457
00531	11918267	-9.794410	-0.280425	0.251847	-0.004513	0.000212	-0.003848
00532	11918317	-9.791822	-0.285623	0.267039	-0.003383	0.004037	-0.003672
00533	11918367	-9.801086	-0.293007	0.278831	-0.003698	0.004006	-0.001398
00534	11918417	-9.799447	-0.304388	0.267408	-0.004202	0.001872	-0.000381
00535	11918467	-9.808213	-0.291400	0.272686	-0.003902	0.001254	-0.003942
00536	11918517	-9.805668	-0.283186	0.267506	-0.008014	-0.003366	-0.003282
00537	11918567	-9.797146	-0.303261	0.278911	-0.003528	0.000919	0.002462
00538	11918617	-9.818018	-0.301166	0.259562	-0.006604	0.003053	-0.000367
00539	11918667	-9.825445	-0.280759	0.265369	-0.002037	0.002035	-0.001437
00540	11918717	-9.798624	-0.293165	0.266309	-0.001314	-0.001496	0.001259
00541	11918767	-9.792026	-0.288713	0.268102	-0.004400	0.001828	-0.003520
00542	11918817	-9.791729	-0.281803	0.283166	-0.004598	0.002148	-0.003292
00543	11918867	-9.792348	-0.288406	0.281527	-0.000042	-0.000119	-0.000211
00544	11918917	-9.792334	-0.298730	0.261108	-0.004922	0.002307	0.000423
00545	11918967	-9.804806	-0.282352	0.280708	-0.003044	-0.003567	-0.000732
00546	11919017	-9.828004	-0.282324	0.297253	-0.005672	0.001513	-0.005019
00547	11919067	-9.803658	-0.289402	0.264895	-0.002023	-0.001218	0.001267
00548	11919117	-9.804905	-0.294039	0.282577	-0.004999	-0.000210	0.000799
00549	11919167	-9.796169	-0.309283	0.248721	-0.007019	0.001015	0.000422
00550	11919217	-9.798303	-0.306979	0.280645	-0.005817	-0.001644	0.000372
00551	11919267	-9.787947	-0.294825	0.237179	-0.004519	-0.000434	-0.002541
00552	11919317	-9.800070	-0.292184	0.267194	-0.003148	0.000090	0.002718
00553	11919367	-9.788572	-0.310587	0.294483	-0.006138	0.000448	0.000608
00554	11919417	-9.799025	-0.301434	0.271021	-0.007842	0.001411	-0.002648
00555	11919467	-9.824944	-0.295292	0.291418	-0.003789	0.003239	0.001903
00556	11919517	-9.808589	-0.301549	0.277035	-0.009276	0.002716	0.001434
00557	11919567	-9.816315	-0.289775	0.269461	-0.003392	-0.001204	0.003703
00558	11919617	-9.793993	-0.331007	0.286786	-0.004551	0.001633	-0.001921
00559	11919667	-9.818913	-0.297785	0.282576	-0.003299	0.002659	-0.001787
00560	11919717	-9.808212	-0.303670	0.259314	-0.002644	-0.000109	-0.001419
00561	11919767	-9.799694	-0.307104	0.275300	-0.001770	0.000815	-0.000938
00562	11919817	-9.794374	-0.296967	0.279577	-0.003953	0.001028	-0.001796
00563	11919867	-9.803817	-0.297995	0.268110	-0.003645	0.001498	0.000869
00564	11919917	-9.816642	-0.279897	0.265333	-0.004705	0.002602	0.000300
00565	11919967	-9.784333	-0.301148	0.282168	-0.006372	0.003736	-0.001778
00566	11920017	-9.794724	-0.303271	0.272193	-0.004063	0.000285	-0.003084
00567	11920067	-9.807374	-0.280788	0.270554	-0.007324	0.002620	0.001042
00568	11920117	-9.808334	-0.292486	0.256339	-0.002835	-0.003339	-0.001594
00569	11920167	-9.811662	-0.299430	0.269117	-0.006229	0.001051	-0.002944
00570	11920217	-9.803897	-0.289823	0.265480	-0.005909	0.002687	0.004210
00571	11920267	-9.800215	-0.295228	0.257593	-0.005768	-0.000320	-0.000453
00572	11920317	-9.818024	-0.297753	0.255273	-0.001230	0.002151	0.001345
00573	11920367	-9.798766	-0.286461	0.275239	-0.000565	0.003190	-0.000989
00574	11920417	-9.799105	-0.289323	0.259509	-0.005461	0.001103	-0.001086
00575	11920467	-9.796478	-0.292508	0.263598	-0.006051	0.000943	0.002823
00576	11920517	-9.808615	-0.293787	0.265239	-0.005291	0.001949	0.001223
00577	11920567	-9.809856	-0.300552	0.287793	-0.003921	0.001936	-0.000729
00578	11920617	-9.793477	-0.301175	0.258760	-0.001889	0.000291	-0.002863
00579	11920667	-9.789515	-0.300013	0.269364	-0.007281	0.005337	0.000254
00580	11920717	-9.801915	-0.295549	0.263756	-0.002344	0.003970	0.001068
00581	11920767	-9.797016	-0.288447	0.266451	-0.007492	0.000650	-0.000055
00582	11920817	-9.814795	-0.297446	0.271331	-0.003701	-0.000796	0.001911
00583	11920867	-9.828157	-0.276556	0.271936	-0.004116	-0.001873	0.000018
00584	11920917	-9.801730	-0.294014	0.269568	-0.002239	0.001387	-0.000903
00585	11920967	-9.802448	-0.292334	0.266930	-0.007112	0.001914	-0.000211
00586	11921017	-9.798090	-0.292576	0.255917	-0.005878	-0.000001	-0.001764
00587	11921067	-9.793406	-0.317328	0.279373	-0.003644	0.001232	-0.000449
00588	11921117	-9.804925	-0.291648	0.280627	-0.004426	0.000636	-0.002337
00589	11921167	-9.800532	-0.294720	0.270682	-0.003800	0.004362	-0.001810
00590	11921217	-9.806407	-0.288075	0.282365	-0.004099	0.000615	-0.000097
00591	11921267	-9.813568	-0.308115	0.286632	-0.001790	0.002693	0.002182
00592	11921317	-9.799974	-0.302165	0.271273	-0.004372	-0.000139	-0.003339
00593	11921367	-9.813079	-0.288595	0.245413	-0.003907	0.002583	-0.001820
00594	11921417	-9.795969	-0.292840	0.260239	-0.001612	-0.000439	-0.000658
00595	11921467	-9.798126	-0.297865	0.272950	-0.004564	0.002153	-0.001497
00596	11921517	-9.807472	-0.277407	0.279270	-0.007720	-0.003391	-0.000880
00597	11921567	-9.819397	-0.273227	0.273295	-0.001296	0.000688	-0.003920
00598	11921617	-9.795988	-0.298596	0.275051	-0.004484	0.001439	-0.002594
00599	11921667	-9.787363	-0.299752	0.268462	-0.005922	0.003741	-0.000016
00600	11921717	-9.813931	-0.285991	0.262227	-0.004699	0.001311	-0.001372
00601	11921767	-9.793561	-0.280235	0.269300	-0.004835	-0.000695	-0.003307
00602	11921817	-9.823507	-0.281404	0.261326	-0.000384	0.001121	-0.004175
00603	11921867	-9.804636	-0.288520	0.266041	-0.004584	-0.000141	-0.000291
00604	11921917	-9.809984	-0.297768	0.264140	-0.006013	0.000711	0.002794
00605	11921967	-9.800008	-0.300418	0.274615	-0.007390	0.000655	0.001384
00606	11922017	-9.802081	-0.287417	0.275053	-0.003610	0.001232	-0.000961
00607	11922067	-9.809102	-0.297654	0.274904	-0.004414	0.000678	0.001636
00608	11922117	-9.803315	-0.284118	0.274462	-0.006118	-0.001328	-0.000233
00609	11922167	-9.833807	-0.270694	0.287964	-0.008601	0.000403	-0.001145
00610	11922217	-9.824189	-0.291639	0.276702	-0.004017	0.000732	-0.004547
00611	11922267	-9.795511	-0.292188	0.261218	-0.001980	0.000128	-0.001936
00612	11922317	-9.792165	-0.277226	0.267767	-0.007454	0.003685	0.000180
00613	11922367	-9.797564	-0.306600	0.277676	-0.009844	0.002614	0.003067
00614	11922417	-9.819446	-0.292072	0.280782	-0.006081	-0.001686	-0.002702
00615	11922467	-9.802626	-0.296301	0.265717	-0.003982	0.002099	0.001000
00616	11922517	-9.804211	-0.286720	0.270871	-0.004165	-0.002453	-0.000148
00617	11922567	-9.805434	-0.290250	0.283292	-0.002053	0.000715	-0.000615
00618	11922617	-9.818549	-0.295705	0.258651	-0.004651	0.000766	-0.000417
00619	11922667	-9.815871	-0.288583	0.273552	-0.004249	-0.001812	-0.001072
00620	11922717	-9.809249	-0.298489	0.261678	-0.006662	0.001729	0.000364
00621	11922767	-9.791498	-0.291270	0.265233	-0.001507	0.000300	-0.002832
00622	11922817	-9.793150	-0.294338	0.270481	-0.006519	0.000577	0.003143
00623	11922867	-9.794703	-0.309816	0.281808	-0.005467	0.000166	-0.002566
00624	11922917	-9.806134	-0.300790	0.263852	-0.002526	0.001616	0.001378
00625	11922967	-9.816245	-0.301554	0.281882	-0.003465	0.000650	-0.002664
00626	11923017	-9.800074	-0.295822	0.276060	-0.005125	0.001525	-0.003007
00627	11923067	-9.804668	-0.309580	0.275170	-0.000059	-0.001033	-0.002936
00628	11923117	-9.823128	-0.283035	0.281424	-0.004817	0.002251	0.001518
00629	11923167	-9.814307	-0.298269	0.270327	-0.007173	0.002621	-0.002384
00630	11923217	-9.788101	-0.297834	0.268776	-0.007460	0.000683	0.000358
00631	11923267	-9.787490	-0.288527	0.266390	-0.005001	0.002018	0.001511
00632	11923317	-9.791274	-0.293984	0.272876	-0.004602	0.000017	-0.004490
00633	11923367	-9.800173	-0.299342	0.260645	-0.006787	0.001661	-0.001207
00634	11923417	-9.801315	-0.312866	0.279349	-0.006378	0.004125	0.000088
00635	11923467	-9.802521	-0.283911	0.261171	-0.005238	0.002305	-0.000921
00636	11923517	-9.804873	-0.290039	0.269397	-0.004467	-0.000074	-0.001510
00637	11923567	-9.822365	-0.296775	0.260679	-0.005059	-0.002602	-0.001457
00638	11923617	-9.819857	-0.288906	0.263676	-0.006679	0.001244	0.000425
00639	11923667	-9.808268	-0.301100	0.263194	-0.005409	-0.000537	-0.000550
00640	11923717	-9.805811	-0.306261	0.260900	-0.004019	0.003162	-0.000727
00641	11923767	-9.795094	-0.311441	0.271234	-0.005048	0.001242	0.000613
00642	11923817	-9.802012	-0.292868	0.273413	-0.006156	0.000931	0.000421
00643	11923867	-9.791318	-0.310072	0.274564	-0.006662	0.000828	0.001767
00644	11923917	-9.809784	-0.308494	0.253097	-0.002796	-0.000038	0.001784
00645	11923967	-9.788549	-0.295618	0.258959	-0.003988	0.000063	-0.001933
00646	11924017	-9.804168	-0.293030	0.276298	-0.002515	0.001961	-0.002502
00647	11924067	-9.805403	-0.299053	0.257146	-0.004304	0.000932	-0.000576
00648	11924117	-9.813266	-0.281203	0.260062	-0.005563	0.001328	-0.000764
00649	11924167	-9.800899	-0.311456	0.247744	-0.003964	0.002424	0.000968
00650	11924217	-9.810119	-0.285651	0.261451	-0.001946	0.001491	0.000158
00651	11924267	-9.790158	-0.312201	0.283163	-0.001917	0.001966	-0.004360
00652	11924317	-9.789415	-0.287184	0.267372	-0.004083	-0.001130	-0.000815
00653	11924367	-9.804743	-0.298865	0.266950	-0.002818	0.001273	-0.003981
00654	11924417	-9.798133	-0.281551	0.279915	-0.004549	-0.000465	-0.000937
00655	11924467	-9.810606	-0.268914	0.267973	-0.003891	0.001137	0.000510
00656	11924517	-9.798535	-0.305288	0.276767	-0.007097	-0.000897	-0.001575
00657	11924567	-9.808971	-0.296761	0.252835	-0.001098	0.002628	-0.002018
00658	11924617	-9.795177	-0.314770	0.292126	-0.004950	0.000718	-0.004068
00659	11924667	-9.795101	-0.309350	0.268681	-0.005098	-0.003602	-0.002139
00660	11924717	-9.801118	-0.304794	0.268857	-0.006050	0.002213	-0.004698
00661	11924767	-9.814421	-0.289254	0.271071	-0.003696	0.003007	-0.000728
00662	11924817	-9.809342	-0.283698	0.284921	-0.006402	0.001600	-0.002749
00663	11924867	-9.812688	-0.282619	0.286932	-0.002258	-0.000101	-0.002127
00664	11924917	-9.804590	-0.285980	0.254742	-0.004655	0.001121	0.001158
00665	11924967	-9.806877	-0.281460	0.267648	-0.007524	0.000680	-0.000346
00666	11925017	-9.789318	-0.301601	0.280721	-0.006797	0.001986	-0.000022
00667	11925067	-9.795876	-0.306306	0.272522	-0.004831	-0.001301	0.001911
00668	11925117	-9.807671	-0.279958	0.278268	-0.002100	0.000069	0.000056
00669	11925167	-9.814427	-0.293330	0.281282	-0.002237	0.004686	0.001971
00670	11925217	-9.808910	-0.293010	0.274154	-0.005059	0.001629	-0.000120
00671	11925267	-9.813051	-0.279994	0.262127	-0.003654	0.004883	-0.000298
00672	11925317	-9.806327	-0.311568	0.277783	-0.005557	0.000904	-0.001694
00673	11925367	-9.784714	-0.302284	0.269788	-0.006513	-0.001978	0.000980
00674	11925417	-9.813320	-0.278635	0.264687	-0.004896	-0.001758	-0.001422
00675	11925467	-9.801914	-0.304701	0.283493	-0.001806	0.000805	-0.002990
00676	11925517	-9.800446	-0.307012	0.281096	-0.004222	0.001448	-0.000060
00677	11925567	-9.811230	-0.284784	0.246116	-0.002777	0.002217	-0.001504
00678	11925617	-9.791004	-0.296117	0.272685	-0.002860	-0.001371	-0.001749
00679	11925667	-9.814581	-0.294873	0.269906	-0.003906	0.001615	-0.000668
00680	11925717	-9.800297	-0.287920	0.256176	-0.003434	-0.000511	-0.002957
00681	11925767	-9.809427	-0.288863	0.272246	-0.005852	0.000718	0.002790
00682	11925817	-9.819476	-0.284812	0.270360	-0.003627	0.000779	-0.001992
00683	11925867	-9.806192	-0.313995	0.261227	-0.005245	0.001068	-0.004901
00684	11925917	-9.798280	-0.300090	0.262273	-0.005327	0.004974	-0.002988
00685	11925967	-9.810610	-0.286565	0.266576	-0.005550	-0.000224	-0.002918
00686	11926017	-9.793847	-0.297811	0.273389	-0.002253	0.001737	-0.002470
00687	11926067	-9.804423	-0.293071	0.280414	-0.004093	0.000226	-0.001512
00688	11926117	-9.803897	-0.296050	0.276484	-0.004905	0.002823	-0.000729
00689	11926167	-9.810206	-0.286846	0.279265	-0.002090	0.001139	0.003011
00690	11926217	-9.811816	-0.296788	0.287893	-0.002509	-0.001266	-0.001650
00691	11926267	-9.815752	-0.296392	0.270330	-0.003036	0.002371	-0.001822
00692	11926317	-9.801108	-0.302757	0.263086	-0.000843	0.001632	-0.003338
00693	11926367	-9.815450	-0.303811	0.274263	-0.005084	0.000105	-0.003817
00694	11926417	-9.801142	-0.298169	0.258978	-0.004400	0.003994	-0.002545
00695	11926467	-9.800651	-0.273670	0.285386	-0.005306	0.002201	-0.002298
00696	11926517	-9.802869	-0.299733	0.272420	-0.002946	0.002471	-0.001054
00697	11926567	-9.807042	-0.291328	0.276492	-0.002694	0.002771	0.000069
00698	11926617	-9.814215	-0.286787	0.270819	-0.005031	0.000054	0.002626
00699	11926667	-9.789603	-0.303120	0.253580	-0.003007	-0.000791	-0.000238
00700	11926717	-9.811141	-0.270078	0.279954	-0.003398	0.000622	-0.000131
00701	11926767	-9.812067	-0.296663	0.252611	-0.003561	0.000983	0.002211
00702	11926817	-9.798672	-0.293615	0.274419	-0.005706	-0.001357	-0.001997
00703	11926867	-9.801403	-0.305769	0.278448	-0.001968	-0.000929	0.000499
00704	11926917	-9.811284	-0.309928	0.268701	-0.004002	0.002041	0.003309
00705	11926967	-9.787514	-0.308677	0.272780	-0.004373	0.005122	-0.002605
00706	11927017	-9.815895	-0.283039	0.266199	-0.006501	0.004795	-0.000808
00707	11927067	-9.798105	-0.306822	0.286910	-0.002909	-0.002597	-0.000311
00708	11927117	-9.798849	-0.295223	0.268153	-0.004371	0.000796	-0.002661
00709	11927167	-9.786921	-0.300787	0.276937	-0.007176	0.000914	-0.000026
00710	11927217	-9.790292	-0.313804	0.270230	-0.005367	0.002333	-0.000218
00711	11927267	-9.807680	-0.297563	0.276370	-0.003382	-0.000123	-0.002637
00712	11927317	-9.803151	-0.297269	0.274839	-0.005022	0.002203	-0.004896
00713	11927367	-9.810317	-0.311227	0.267894	0.000139	0.002939	-0.002819
00714	11927417	-9.813776	-0.292910	0.250693	-0.003757	0.001912	-0.000764
00715	11927467	-9.812210	-0.314788	0.272210	-0.005275	0.003535	0.000627
00716	11927517	-9.807034	-0.303929	0.261689	-0.002953	0.002694	-0.002238
00717	11927567	-9.789270	-0.304729	0.279808	-0.003639	0.002202	-0.000861
00718	11927617	-9.786837	-0.303565	0.268003	0.000016	0.004780	-0.003230
00719	11927667	-9.780907	-0.324010	0.275214	-0.004022	0.002066	-0.001795
00720	11927717	-9.785736	-0.303093	0.243134	-0.004538	0.002415	0.000809
00721	11927767	-9.794106	-0.309415	0.261542	-0.005493	0.003302	0.001198
00722	11927817	-9.798641	-0.291772	0.266019	-0.004315	-0.000876	-0.000747
00723	11927867	-9.795881	-0.306121	0.272211	-0.002886	0.000302	-0.003278
00724	11927917	-9.791533	-0.313180	0.276470	-0.005119	0.000534	0.000511
00725	11927967	-9.788338	-0.316710	0.268061	-0.004374	0.001923	-0.002943
00726	11928017	-9.811361	-0.310210	0.280129	-0.005809	0.003001	-0.002293
00727	11928067	-9.826061	-0.293905	0.275974	-0.005447	0.001045	0.001670
00728	11928117	-9.791301	-0.309783	0.270915	-0.002989	0.004088	0.001197
00729	11928167	-9.810721	-0.303839	0.280632	-0.006460	0.002409	-0.001300
00730	11928217	-9.811143	-0.298226	0.259136	-0.004922	0.006634	-0.001154
00731	11928267	-9.781577	-0.298178	0.293700	-0.002971	0.000408	0.000311
00732	11928317	-9.788435	-0.289760	0.266840	-0.004840	0.001826	0.000388
00733	11928367	-9.802632	-0.302149	0.278868	-0.003050	0.003057	0.001451
00734	11928417	-9.788951	-0.315551	0.287253	-0.004116	0.000834	-0.003628
00735	11928467	-9.812575	-0.282486	0.266282	-0.005092	0.001531	-0.001244
00736	11928517	-9.813521	-0.307110	0.277264	-0.003678	0.002332	-0.001626
00737	11928567	-9.801311	-0.318502	0.251346	-0.004889	0.002011	-0.004704
00738	11928617	-9.813538	-0.300415	0.265752	-0.003689	0.002082	0.002471
00739	11928667	-9.804101	-0.296762	0.273452	-0.003137	0.001337	-0.002274
00740	11928717	-9.808011	-0.288684	0.273246	-0.005132	-0.000084	-0.000676
00741	11928767	-9.800858	-0.286604	0.267927	-0.001710	-0.000184	-0.000114
00742	11928817	-9.810946	-0.297546	0.265538	-0.003958	0.001397	0.001862
00743	11928867	-9.788526	-0.305078	0.275459	-0.004273	0.003062	-0.000440
00744	11928917	-9.784721	-0.308070	0.281727	-0.001011	0.000561	-0.004409
00745	11928967	-9.828545	-0.267170	0.276872	-0.005981	0.000484	-0.000286
00746	11929017	-9.817476	-0.288753	0.264378	-0.003011	0.000302	-0.004718
00747	11929067	-9.833343	-0.283557	0.276668	-0.002327	0.000130	0.000345
00748	11929117	-9.814529	-0.297208	0.265782	-0.003435	0.000685	-0.000805
00749	11929167	-9.834085	-0.300191	0.277120	-0.005104	0.003245	0.001396
00750	11929217	-9.795306	-0.292727	0.268116	-0.004699	0.000247	-0.000646
00751	11929267	-9.803950	-0.285962	0.265356	-0.002524	-0.002015	-0.003704
00752	11929317	-9.781796	-0.307083	0.269464	-0.000646	0.000475	-0.001843
00753	11929367	-9.793897	-0.291790	0.269111	-0.000762	-0.001815	-0.000828
00754	11929417	-9.796725	-0.295689	0.271879	-0.006217	0.002766	-0.002740
00755	11929467	-9.801955	-0.307644	0.256711	0.002082	-0.000963	-0.002687
00756	11929517	-9.807088	-0.302567	0.267201	-0.003246	0.000757	-0.000132
00757	11929567	-9.815899	-0.305310	0.272961	-0.001482	0.001923	0.001696
00758	11929617	-9.791512	-0.296661	0.279073	-0.006445	0.001992	0.000169
00759	11929667	-9.791754	-0.316900	0.281683	-0.003117	0.003890	-0.001623
00760	11929717	-9.807530	-0.298177	0.292655	-0.004655	0.000256	0.002430
00761	11929767	-9.799349	-0.308148	0.259768	-0.007288	-0.000966	-0.003692
00762	11929817	-9.794161	-0.295499	0.280111	-0.004777	0.000758	-0.001376
00763	11929867	-9.783358	-0.293933	0.264138	-0.004693	0.002245	-0.001267
00764	11929917	-9.804768	-0.285552	0.281516	-0.003896	0.003058	-0.003175
00765	11929967	-9.798324	-0.297242	0.264036	-0.004201	0.002702	-0.002310
00766	11930017	-9.786833	-0.297407	0.254897	-0.005253	0.001718	-0.000299
00767	11930067	-9.795657	-0.290140	0.280880	-0.003317	-0.002158	-0.003114
00768	11930117	-9.811097	-0.290905	0.276577	-0.002050	0.000449	0.000136
00769	11930167	-9.812180	-0.298550	0.273659	-0.003698	0.002968	-0.002566
00770	11930217	-9.822198	-0.310744	0.262577	-0.003392	-0.001410	0.000582
00771	11930267	-9.819793	-0.274472	0.262474	-0.007206	0.000647	-0.002348
00772	11930317	-9.802394	-0.304700	0.283174	-0.002015	0.003485	-0.001609
00773	11930367	-9.807493	-0.292772	0.275049	-0.006252	0.003089	-0.001022
00774	11930417	-9.786001	-0.293962	0.268532	-0.005832	0.001901	0.001374
00775	11930467	-9.804393	-0.288425	0.265035	-0.004843	-0.000080	0.000782
00776	11930517	-9.803705	-0.287661	0.267431	-0.003033	0.002041	-0.003343
00777	11930567	-9.797459	-0.305871	0.257804	-0.002903	0.001337	0.000015
00778	11930617	-9.802889	-0.299352	0.275314	-0.004908	0.002979	-0.001154
00779	11930667	-9.827092	-0.303163	0.268730	-0.004423	0.002468	-0.004297
00780	11930717	-9.808667	-0.307569	0.263915	-0.008157	-0.001528	-0.000306
00781	11930767	-9.811875	-0.282501	0.268161	-0.005281	0.001688	0.000568
00782	11930817	-9.809309	-0.296445	0.268351	-0.004448	0.003834	0.000290
00783	11930867	-9.792545	-0.304316	0.268523	-0.001422	0.002979	-0.001356
00784	11930917	-9.792816	-0.303343	0.272343	-0.007530	0.004365	0.002961
00785	11930967	-9.801151	-0.283549	0.270567	-0.000242	-0.000001	-0.000383
00786	11931017	-9.786879	-0.277601	0.260574	-0.001238	0.002076	-0.001334
00787	11931067	-9.786270	-0.309713	0.266129	-0.004300	0.002632	-0.003979
00788	11931117	-9.794503	-0.300035	0.269212	-0.001863	-0.003156	0.002428
00789	11931167	-9.810591	-0.294750	0.279455	-0.000498	-0.001038	-0.000482
00790	11931217	-9.797997	-0.314449	0.284957	-0.006545	-0.002217	-0.003135
00791	11931267	-9.822409	-0.295641	0.266616	-0.005463	-0.001804	0.000805
00792	11931317	-9.810757	-0.300988	0.279444	-0.001784	-0.000003	-0.003613
00793	11931367	-9.793344	-0.297775	0.269839	-0.003447	-0.001998	-0.001702
00794	11931417	-9.797892	-0.293259	0.263984	-0.005550	0.003903	-0.002976
00795	11931467	-9.797040	-0.289244	0.271264	-0.006004	0.001125	-0.000263
00796	11931517	-9.786261	-0.293895	0.271206	-0.003619	-0.000582	-0.001402
00797	11931567	-9.801625	-0.300461	0.265696	-0.004181	0.001891	-0.003440
00798	11931617	-9.799578	-0.284531	0.287603	-0.005003	-0.000087	-0.001107
00799	11931667	-9.816287	-0.296766	0.279744	-0.002211	0.000540	-0.002490
00800	11931717	-9.800019	-0.300747	0.275862	-0.005303	-0.001898	-0.000799
00801	11931767	-9.809145	-0.277642	0.280146	-0.007169	0.001683	-0.000325
00802	11931817	-9.811233	-0.298871	0.276137	-0.004123	0.000017	-0.004856
00803	11931867	-9.807209	-0.295044	0.271133	-0.004924	-0.002734	-0.000896
00804	11931917	-9.785819	-0.306119	0.262896	-0.003034	-0.001992	-0.002310
00805	11931967	-9.799285	-0.304036	0.279657	-0.003584	0.001751	0.001878
00806	11932017	-9.800504	-0.294483	0.265245	-0.008505	0.001302	-0.001089
00807	11932067	-9.792797	-0.286342	0.274089	-0.004885	0.001337	0.000149
00808	11932117	-9.802714	-0.296069	0.278968	-0.009190	-0.001386	-0.001713
00809	11932167	-9.801949	-0.302840	0.284240	-0.002371	-0.000524	-0.001729
00810	11932217	-9.802259	-0.287869	0.265252	-0.006229	0.002016	-0.003368
00811	11932267	-9.819605	-0.292539	0.269506	-0.006719	-0.001467	0.000303
00812	11932317	-9.815165	-0.289958	0.278700	-0.005424	0.002465	0.003268
00813	11932367	-9.798905	-0.303275	0.254671	-0.006495	0.001365	-0.001899
00814	11932417	-9.814052	-0.297993	0.266792	-0.000885	0.001949	-0.002902
00815	11932467	-9.827742	-0.285265	0.261080	-0.000096	0.000288	-0.002558
00816	11932517	-9.815240	-0.302077	0.275720	-0.005401	-0.001448	0.002157
00817	11932567	-9.823494	-0.289964	0.276258	-0.008675	-0.001577	-0.003346
00818	11932617	-9.826368	-0.299563	0.260873	-0.003169	0.000694	0.000977
00819	11932667	-9.806406	-0.280826	0.267432	-0.003764	0.001966	-0.002604
00820	11932717	-9.793295	-0.302913	0.271718	-0.007226	0.000427	0.000569
00821	11932767	-9.806521	-0.299803	0.285464	-0.005646	0.000968	-0.001228
00822	11932817	-9.807594	-0.301997	0.271825	-0.001983	-0.000914	-0.004294
00823	11932867	-9.809429	-0.288189	0.270811	-0.004335	0.000964	0.000145
00824	11932917	-9.796907	-0.313585	0.260222	-0.005921	0.001083	-0.005101
00825	11932967	-9.792295	-0.305501	0.269434	-0.002522	-0.004013	-0.000529
00826	11933017	-9.804921	-0.302042	0.262819	-0.005007	0.002046	-0.000007
00827	11933067	-9.801358	-0.285964	0.270305	-0.008441	0.000141	-0.003118
00828	11933117	-9.813678	-0.292539	0.272800	-0.004832	-0.001472	0.000484
00829	11933167	-9.798519	-0.285219	0.271899	-0.004415	0.004704	0.000647
00830	11933217	-9.812453	-0.286561	0.255447	-0.002038	0.002293	-0.000111
00831	11933267	-9.806132	-0.298040	0.297385	-0.003096	0.002339	-0.000457
00832	11933317	-9.791853	-0.289580	0.281033	-0.003596	0.001742	-0.002574
00833	11933367	-9.810724	-0.283369	0.277755	-0.006937	0.001235	-0.001894
00834	11933417	-9.793468	-0.295714	0.246072	-0.005373	0.001457	-0.000810
00835	11933467	-9.794761	-0.301226	0.274552	-0.001726	0.002292	-0.003093
00836	11933517	-9.801427	-0.300506	0.271739	0.000535	0.001392	-0.004257
00837	11933567	-9.799786	-0.295101	0.267144	-0.000929	0.001670	0.000975
00838	11933617	-9.811578	-0.293391	0.281381	-0.005583	0.000773	-0.001387
00839	11933667	-9.796149	-0.290907	0.285007	-0.005015	0.006364	-0.002195
00840	11933717	-9.809595	-0.291709	0.266990	-0.004541	0.002404	-0.001832
00841	11933767	-9.808887	-0.291524	0.266268	-0.000319	-0.000846	-0.002756
00842	11933817	-9.822222	-0.282959	0.288158	-0.005934	0.000929	-0.001705
00843	11933867	-9.813858	-0.285223	0.286618	-0.007789	0.001927	-0.002114
00844	11933917	-9.812156	-0.298200	0.269347	-0.006677	0.003206	-0.002077
00845	11933967	-9.799619	-0.295060	0.277237	-0.001702	0.000516	-0.001721
00846	11934017	-9.812589	-0.300977	0.268187	-0.004664	0.001342	0.000343
00847	11934067	-9.822856	-0.263961	0.274348	-0.003555	0.004846	-0.000954
00848	11934117	-9.809703	-0.304089	0.269648	-0.007430	0.000775	-0.000709
00849	11934167	-9.803888	-0.302041	0.248986	-0.005050	0.001239	-0.000873
00850	11934217	-9.783434	-0.302454	0.255630	-0.006311	-0.000598	-0.004218
00851	11934267	-9.802036	-0.310544	0.276284	-0.003951	0.001997	-0.001772
00852	11934317	-9.819593	-0.290862	0.263216	-0.006451	-0.000858	-0.001587
00853	11934367	-9.814222	-0.297413	0.256713	-0.004110	0.000292	0.004343
00854	11934417	-9.834272	-0.282092	0.270842	-0.004219	0.003511	-0.001440
00855	11934467	-9.798104	-0.285584	0.283019	-0.007044	-0.000183	0.001333
00856	11934517	-9.790007	-0.291335	0.293239	-0.006887	0.002047	0.000833
00857	11934567	-9.792857	-0.315431	0.265191	-0.003064	0.003340	-0.000355
00858	11934617	-9.784866	-0.305545	0.261497	-0.006111	-0.004788	-0.001067
00859	11934667	-9.794951	-0.319780	0.265475	-0.006362	0.000375	-0.000843
00860	11934717	-9.802007	-0.309210	0.268160	-0.008432	0.001209	-0.000996
00861	11934767	-9.818015	-0.289549	0.274526	-0.005881	-0.001846	-0.001305
00862	11934817	-9.815084	-0.293304	0.271056	-0.000226	0.001445	-0.002359
00863	11934867	-9.803388	-0.297720	0.274894	-0.006349	-0.000243	-0.002743
00864	11934917	-9.805654	-0.288822	0.277487	-0.004987	0.001068	-0.004242
00865	11934967	-9.807854	-0.267864	0.283831	-0.006751	-0.000669	-0.003506
00866	11935017	-9.806339	-0.287174	0.269645	-0.006837	-0.000665	0.000113
00867	11935067	-9.815422	-0.286201	0.272680	-0.002977	0.001662	-0.000461
00868	11935117	-9.800300	-0.312037	0.268170	-0.002506	0.000535	-0.002586
00869	11935167	-9.807691	-0.297465	0.278420	-0.004882	0.002442	0.002176
00870	11935217	-9.808467	-0.291705	0.275847	-0.008381	0.001170	-0.004870
00871	11935267	-9.794128	-0.292299	0.268625	-0.004838	-0.000410	-0.002202
00872	11935317	-9.822905	-0.275728	0.268282	-0.004433	0.000149	0.000501
00873	11935367	-9.806887	-0.299815	0.268721	-0.003763	-0.001194	-0.002720
00874	11935417	-9.805224	-0.300481	0.271251	-0.008580	0.002692	-0.000218
00875	11935467	-9.823803	-0.299969	0.269958	-0.002769	0.000085	0.001101
00876	11935517	-9.814724	-0.302477	0.270110	-0.002039	0.001322	-0.000786
00877	11935567	-9.798714	-0.290994	0.275946	-0.002189	0.004997	-0.000639
00878	11935617	-9.791583	-0.307743	0.273492	-0.002500	0.005635	-0.003105
00879	11935667	-9.797749	-0.295656	0.283505	-0.003964	-0.000912	-0.003005
00880	11935717	-9.798266	-0.289164	0.276684	-0.006437	0.002594	-0.003336
00881	11935767	-9.804710	-0.297417	0.257338	-0.004737	0.003598	-0.000671
00882	11935817	-9.790251	-0.301259	0.276047	-0.002802	-0.000914	0.000869
00883	11935867	-9.804183	-0.320148	0.256446	-0.005173	-0.000895	0.000329
00884	11935917	-9.814996	-0.278663	0.266045	-0.003733	0.001329	0.000663
00885	11935967	-9.818639	-0.292328	0.266293	-0.000814	0.001761	-0.002617
00886	11936017	-9.806990	-0.290711	0.266482	-0.002218	0.000800	0.000235
00887	11936067	-9.804030	-0.282521	0.271233	0.000521	0.002977	-0.004596
00888	11936117	-9.813834	-0.300496	0.275891	-0.003976	0.001607	-0.001708
00889	11936167	-9.811051	-0.276973	0.279001	-0.006586	0.000405	-0.000904
00890	11936217	-9.805808	-0.288043	0.262220	-0.005299	-0.001057	0.000171
00891	11936267	-9.800538	-0.303475	0.250150	-0.001131	0.000758	-0.001046
00892	11936317	-9.802326	-0.299087	0.261061	-0.000546	-0.002556	0.000083
00893	11936367	-9.803143	-0.288873	0.255673	-0.003855	0.001998	-0.001903
00894	11936417	-9.797730	-0.293435	0.277025	-0.001322	0.000393	-0.004128
00895	11936467	-9.787139	-0.311946	0.257259	-0.005840	0.001930	-0.002733
00896	11936517	-9.799852	-0.312860	0.272949	-0.007195	-0.000742	-0.002261
00897	11936567	-9.799953	-0.299166	0.261146	-0.001468	0.003329	-0.003375
00898	11936617	-9.811897	-0.302013	0.273954	-0.004903	-0.000212	0.000365
00899	11936667	-9.790893	-0.312503	0.287501	-0.007565	0.000833	-0.001801
00900	11936717	-9.815135	-0.270766	0.272505	-0.001083	0.000275	-0.000602
00901	11936767	-9.798701	-0.289801	0.272898	-0.008428	-0.000114	-0.000717
00902	11936817	-9.795528	-0.292732	0.265451	-0.006393	0.003211	-0.002786
00903	11936867	-9.798401	-0.275971	0.272507	-0.005308	-0.001837	-0.001759
00904	11936917	-9.825142	-0.268748	0.268700	-0.007388	0.000253	-0.003500
00905	11936967	-9.800960	-0.294312	0.261697	-0.007285	0.000229	-0.001101
00906	11937017	-9.809890	-0.290691	0.273915	-0.004441	0.002113	-0.002217
00907	11937067	-9.780266	-0.301474	0.280102	-0.004368	-0.002109	-0.000097
00908	11937117	-9.792800	-0.299449	0.260945	-0.005998	-0.000139	-0.001589
00909	11937167	-9.810363	-0.296824	0.285706	-0.001560	-0.001100	-0.004420
00910	11937217	-9.819986	-0.281973	0.270459	0.001548	-0.001296	-0.002349
00911	11937267	-9.811246	-0.294896	0.269583	-0.005604	0.003679	-0.001852
00912	11937317	-9.815287	-0.292459	0.264812	-0.003204	0.002689	-0.000166
00913	11937367	-9.798457	-0.304843	0.262623	-0.006200	0.000920	-0.003598
00914	11937417	-9.802808	-0.285329	0.271531	-0.005109	0.000975	-0.002319
00915	11937467	-9.801475	-0.299824	0.278451	-0.004818	0.000143	0.000333
00916	11937517	-9.804173	-0.289329	0.271058	-0.004458	0.001892	0.000378
00917	11937567	-9.814169	-0.273314	0.275886	-0.001636	0.000283	-0.005247
00918	11937617	-9.796867	-0.291519	0.247931	-0.005087	0.003559	-0.001730
00919	11937667	-9.815127	-0.289919	0.271586	-0.004860	0.001631	0.000957
00920	11937717	-9.807882	-0.291555	0.257380	-0.005487	0.000807	-0.000876
00921	11937767	-9.827269	-0.289033	0.269600	-0.002173	0.004150	-0.005770
00922	11937817	-9.808871	-0.295590	0.272544	-0.004462	-0.000078	-0.001621
00923	11937867	-9.794694	-0.313734	0.250149	-0.004756	0.000311	0.001427
00924	11937917	-9.815614	-0.288025	0.271138	-0.006415	-0.000754	0.001361
00925	11937967	-9.814066	-0.294293	0.261989	-0.005371	0.001523	-0.000361
00926	11938017	-9.804072	-0.290666	0.256968	-0.003350	-0.001726	0.002884
00927	11938067	-9.816137	-0.292940	0.248208	-0.005417	0.005940	-0.001104
00928	11938117	-9.808985	-0.302351	0.266000	-0.004618	0.001954	-0.000647
00929	11938167	-9.802814	-0.298250	0.261219	-0.005031	0.000585	-0.001997
00930	11938217	-9.806590	-0.283856	0.265191	-0.004912	0.005110	-0.002968
00931	11938267	-9.796216	-0.297543	0.271221	-0.006036	0.001252	-0.000425
00932	11938317	-9.792029	-0.312609	0.279123	-0.001617	0.001547	-0.004855
00933	11938367	-9.825842	-0.307516	0.267750	-0.001968	0.001202	0.001747
00934	11938417	-9.815426	-0.318069	0.261031	-0.005713	0.001735	-0.003815
00935	11938467	-9.785201	-0.319936	0.267447	-0.007968	-0.002629	-0.002013
00936	11938517	-9.795464	-0.299348	0.268077	-0.006387	0.003344	0.000038
00937	11938567	-9.802682	-0.274342	0.268115	-0.003866	0.002255	-0.001292
00938	11938617	-9.794573	-0.312666	0.266693	-0.004064	0.000348	-0.001112
00939	11938667	-9.784646	-0.310725	0.274370	-0.005145	0.006595	0.000464
00940	11938717	-9.791076	-0.310889	0.275319	0.000289	0.000100	-0.002625
00941	11938767	-9.814189	-0.304526	0.264214	-0.003338	-0.001252	-0.000890
00942	11938817	-9.811641	-0.293581	0.254428	-0.003223	0.004795	0.003915
00943	11938867	-9.786839	-0.299680	0.260468	-0.007513	-0.001909	-0.003164
00944	11938917	-9.794715	-0.299685	0.263962	-0.003128	0.003535	0.002141
00945	11938967	-9.803995	-0.324959	0.275147	-0.006691	-0.000373	0.000145
00946	11939017	-9.801726	-0.299146	0.279464	-0.005222	-0.000480	-0.001109
00947	11939067	-9.808877	-0.300267	0.243786	-0.003337	-0.000311	0.000586
00948	11939117	-9.824448	-0.285771	0.268689	-0.004859	0.004434	-0.000954
00949	11939167	-9.802500	-0.311050	0.275097	-0.005524	0.002966	-0.002564
00950	11939217	-9.799816	-0.300457	0.281612	-0.008225	-0.002734	-0.004224
00951	11939267	-9.798596	-0.289734	0.255106	-0.003809	0.002615	0.000409
00952	11939317	-9.811579	-0.288435	0.272256	-0.003812	-0.000719	-0.004765
00953	11939367	-9.797057	-0.302965	0.264283	-0.004901	0.001363	-0.003889
00954	11939417	-9.799953	-0.300823	0.264304	-0.008192	-0.000530	-0.001904
00955	11939467	-9.810259	-0.300238	0.274935	-0.002754	0.000337	-0.002041
00956	11939517	-9.806022	-0.275885	0.272925	-0.007483	0.001582	-0.000133
00957	11939567	-9.803702	-0.287870	0.267957	-0.002301	-0.000683	-0.000417
00958	11939617	-9.803747	-0.301271	0.263123	-0.001893	0.000746	-0.000437
00959	11939667	-9.786962	-0.309971	0.263084	-0.002640	-0.000374	-0.002849
00960	11939717	-9.791415	-0.280182	0.267637	-0.007194	0.001064	-0.003371
00961	11939767	-9.785229	-0.304195	0.277603	-0.002677	0.002113	-0.002002
00962	11939817	-9.787731	-0.280875	0.289433	-0.005915	0.000347	-0.001459
00963	11939867	-9.787705	-0.305567	0.259424	-0.003880	0.002705	-0.001865
00964	11939917	-9.813701	-0.283128	0.257665	-0.004541	-0.000760	-0.002678
00965	11939967	-9.808000	-0.294433	0.283249	-0.007109	0.002480	-0.005189
00966	11940017	-9.819253	-0.296008	0.256954	-0.003101	0.002265	-0.002859
00967	11940067	-9.817696	-0.313444	0.271569	-0.000836	0.001793	0.000656
00968	11940117	-9.797923	-0.303789	0.289175	-0.008063	0.000633	-0.000069
00969	11940167	-9.789248	-0.309119	0.246280	-0.001618	0.001230	0.001071
00970	11940217	-9.794044	-0.318181	0.268805	-0.005475	0.002513	-0.002213
00971	11940267	-9.795257	-0.298249	0.271027	-0.005920	-0.000589	-0.001781
00972	11940317	-9.807858	-0.291563	0.254555	-0.006590	0.000364	-0.002541
00973	11940367	-9.808103	-0.293774	0.259554	-0.004650	0.001691	-0.002412
00974	11940417	-9.801897	-0.304808	0.280144	-0.000729	-0.000718	0.000740
00975	11940467	-9.804485	-0.306012	0.277491	-0.003393	0.000620	0.001200
00976	11940517	-9.819639	-0.292692	0.274430	-0.005748	0.002025	-0.002340
00977	11940567	-9.799422	-0.279729	0.252727	-0.002284	0.002959	-0.000266
00978	11940617	-9.802035	-0.291203	0.273834	-0.005862	0.002900	-0.000895
00979	11940667	-9.812428	-0.302267	0.283702	-0.005667	0.003542	-0.003453
00980	11940717	-9.800975	-0.280318	0.274886	-0.006775	0.000395	-0.000584
00981	11940767	-9.815684	-0.285519	0.275161	-0.004809	0.001685	-0.002439
00982	11940817	-9.812642	-0.299883	0.274475	-0.007501	-0.001939	0.000528
00983	11940867	-9.807399	-0.287259	0.286542	-0.003181	0.003009	-0.002055
00984	11940917	-9.803954	-0.291827	0.277633	-0.004651	0.003950	-0.001791
00985	11940967	-9.802358	-0.299450	0.265764	-0.005108	0.001103	-0.002155
00986	11941017	-9.803236	-0.286925	0.268107	-0.004802	0.003623	-0.002719
00987	11941067	-9.806767	-0.291960	0.271045	-0.002839	0.001308	-0.000651
00988	11941117	-9.804857	-0.304841	0.257883	-0.002796	-0.000308	-0.001786
00989	11941167	-9.805385	-0.299460	0.255349	-0.002686	0.005171	-0.006175
00990	11941217	-9.785544	-0.308697	0.262020	-0.004353	0.002372	-0.003757
00991	11941267	-9.799230	-0.291664	0.283962	-0.001351	-0.000414	-0.002624
00992	11941317	-9.788607	-0.295287	0.268350	-0.001772	-0.000097	-0.000666
00993	11941367	-9.800123	-0.288467	0.267919	-0.002772	-0.000852	0.000327
00994	11941417	-9.797864	-0.300715	0.273662	-0.004705	0.000267	-0.003602
00995	11941467	-9.822455	-0.293874	0.270741	-0.003358	-0.000448	-0.000498
00996	11941517	-9.804025	-0.296238	0.258993	-0.003019	0.001950	-0.000911
00997	11941567	-9.807656	-0.291687	0.260506	-0.002860	0.000589	-0.004252
00998	11941617	-9.799780	-0.293670	0.260382	-0.001978	0.003188	-0.003470
00999	11941667	-9.803735	-0.297091	0.254087	-0.003567	-0.000963	0.001484
01000	11941717	-9.807807	-0.308062	0.279986	-0.002244	-0.001654	-0.002721
01001	11941767	-9.797318	-0.284454	0.268097	-0.004383	-0.000563	-0.001397
01002	11941817	-9.812479	-0.285476	0.295543	-0.003322	0.001460	0.000598
01003	11941867	-9.817373	-0.285118	0.278039	-0.006720	-0.000474	-0.001422
01004	11941917	-9.806208	-0.272282	0.255914	-0.005291	0.002007	-0.001057
01005	11941967	-9.810722	-0.277868	0.266077	-0.003123	-0.001324	-0.006209
01006	11942017	-9.798841	-0.296333	0.268168	-0.004265	0.001959	-0.000485
01007	11942067	-9.818929	-0.308976	0.269226	-0.006439	0.001694	-0.001954
01008	11942117	-9.804104	-0.322325	0.247941	-0.008879	0.004303	0.002354
01009	11942167	-9.813692	-0.307154	0.266563	-0.007679	-0.000389	0.000121
01010	11942217	-9.809922	-0.283209	0.263615	-0.006815	0.001360	-0.002889
01011	11942267	-9.811234	-0.285403	0.248810	-0.003339	0.000384	-0.005078
01012	11942317	-9.804261	-0.293908	0.294040	-0.003514	-0.000706	-0.001468
01013	11942367	-9.810231	-0.304298	0.278734	-0.003338	0.000549	-0.003255
01014	11942417	-9.819589	-0.274219	0.267102	-0.000546	-0.001426	0.000833
01015	11942467	-9.786574	-0.305486	0.267453	-0.004105	-0.002495	-0.002532
01016	11942517	-9.795405	-0.307089	0.275809	-0.005083	0.000492	0.000244
01017	11942567	-9.789483	-0.300471	0.265192	-0.005919	0.001377	-0.003146
01018	11942617	-9.804905	-0.303197	0.262214	-0.001708	0.000942	-0.000434
01019	11942667	-9.832532	-0.287781	0.269954	-0.008943	0.002035	-0.001529
01020	11942717	-9.832637	-0.280452	0.273098	-0.000832	0.000639	0.001328
01021	11942767	-9.809889	-0.287145	0.265469	-0.003894	0.003422	0.000547
01022	11942817	-9.831320	-0.286047	0.262787	-0.003268	0.000589	-0.000720
01023	11942867	-9.831400	-0.282988	0.269841	-0.001814	0.005555	-0.000726
01024	11942917	-9.796437	-0.305143	0.283406	-0.007541	0.002187	-0.002142
01025	11942967	-9.816400	-0.287001	0.277308	-0.001777	0.000867	-0.002582
01026	11943017	-9.803137	-0.301105	0.279599	-0.005414	0.003742	-0.002109
01027	11943067	-9.800919	-0.300389	0.266666	-0.005580	0.002967	-0.001280
01028	11943117	-9.796321	-0.293652	0.279141	-0.006435	0.001657	-0.002182
01029	11943167	-9.810146	-0.290892	0.276106	-0.002968	0.000270	-0.001074
01030	11943217	-9.804404	-0.307447	0.267097	-0.000804	0.001733	0.001008
01031	11943267	-9.816541	-0.287134	0.263601	-0.001360	0.002468	0.003966
01032	11943317	-9.822535	-0.292729	0.281038	-0.007721	-0.003162	0.001674
01033	11943367	-9.805352	-0.291702	0.272963	-0.002234	0.000350	-0.000181
01034	11943417	-9.800424	-0.287476	0.276222	-0.001977	0.001158	-0.002519
01035	11943467	-9.785547	-0.315149	0.275039	-0.006904	-0.000164	-0.005427
01036	11943517	-9.793117	-0.299463	0.274367	-0.007568	-0.000940	-0.001362
01037	11943567	-9.792374	-0.286012	0.280816	-0.003435	-0.000093	-0.000791
01038	11943617	-9.784591	-0.312617	0.270242	-0.003941	0.000638	-0.000817
01039	11943667	-9.807127	-0.299035	0.266483	-0.004546	0.000601	-0.000812
01040	11943717	-9.806885	-0.299822	0.268452	-0.006573	-0.001315	-0.003029
01041	11943767	-9.793765	-0.304679	0.273600	-0.002901	0.002080	-0.000173
01042	11943817	-9.832873	-0.285277	0.282626	-0.002436	0.001703	-0.000073
01043	11943867	-9.820732	-0.280118	0.271648	-0.002697	-0.000409	-0.001980
01044	11943917	-9.827452	-0.279846	0.279767	-0.002623	0.000370	-0.002549
01045	11943967	-9.801224	-0.293633	0.264084	-0.001319	0.000915	0.001712
01046	11944017	-9.808968	-0.286730	0.270354	-0.004999	0.000884	0.001144
01047	11944067	-9.788996	-0.303266	0.270441	-0.007661	0.001825	-0.004132
01048	11944117	-9.779945	-0.303047	0.269727	-0.005944	0.002215	-0.002853
01049	11944167	-9.782460	-0.284984	0.253874	-0.004461	0.003051	-0.000229
01050	11944217	-9.809135	-0.297097	0.278735	-0.003250	0.002101	-0.001708
01051	11944267	-9.831853	-0.286218	0.273203	-0.001118	-0.001031	-0.004803
01052	11944317	-9.819113	-0.299649	0.280640	-0.006576	0.003110	-0.002140
01053	11944367	-9.817912	-0.312440	0.265839	-0.005115	0.000427	-0.000909
01054	11944417	-9.801810	-0.304405	0.264871	-0.002813	-0.001729	-0.001249
01055	11944467	-9.795988	-0.294966	0.267608	-0.000501	0.001826	-0.003673
01056	11944517	-9.803176	-0.292873	0.270106	-0.002790	0.000464	-0.002328
01057	11944567	-9.771641	-0.289428	0.285249	0.000176	0.000773	-0.002977
01058	11944617	-9.772463	-0.299055	0.284274	-0.004359	0.002093	0.001818
01059	11944667	-9.801589	-0.287919	0.272205	-0.008070	0.001825	-0.001279
01060	11944717	-9.768644	-0.312107	0.270408	-0.002036	0.001223	0.000586
01061	11944767	-9.816833	-0.290805	0.279285	-0.000309	-0.000843	0.000449
01062	11944817	-9.815614	-0.288807	0.270919	-0.005310	-0.000742	-0.003155
01063	11944867	-9.833133	-0.303158	0.282322	-0.007226	0.006551	-0.001190
01064	11944917	-9.828583	-0.318822	0.271171	-0.002730	0.001889	-0.000967
01065	11944967	-9.813389	-0.295364	0.270349	-0.002968	0.001110	-0.001874
01066	11945017	-9.805191	-0.300249	0.264399	-0.006153	-0.001439	-0.003128
01067	11945067	-9.796459	-0.300520	0.277660	-0.003828	0.003028	-0.003400
01068	11945117	-9.784943	-0.280902	0.263037	-0.007135	0.000456	-0.001900
01069	11945167	-9.780473	-0.299913	0.272364	-0.007369	0.002034	0.001474
01070	11945217	-9.811081	-0.299643	0.253173	-0.005478	-0.002520	-0.001596
01071	11945267	-9.805336	-0.285463	0.295913	-0.008007	0.001762	-0.001185
01072	11945317	-9.812302	-0.311694	0.281843	-0.007714	0.002670	-0.001468
01073	11945367	-9.802377	-0.314334	0.260408	-0.009549	0.001958	-0.002654
01074	11945417	-9.834369	-0.293797	0.271494	-0.001892	-0.001618	-0.002786
01075	11945467	-9.816854	-0.285259	0.271998	-0.005285	0.002748	-0.001281
01076	11945517	-9.813840	-0.296792	0.269225	-0.003254	-0.001765	0.000518
01077	11945567	-9.806432	-0.298750	0.268641	-0.006607	0.000016	0.000052
01078	11945617	-9.803677	-0.292434	0.271882	-0.003924	0.004188	-0.001565
01079	11945667	-9.814294	-0.283029	0.276838	-0.004330	0.001255	0.003292
01080	11945717	-9.795437	-0.284232	0.271460	-0.000759	0.001179	-0.001430
01081	11945767	-9.776608	-0.302056	0.266810	-0.007328	-0.000685	-0.002802
01082	11945817	-9.807823	-0.287321	0.278944	-0.001755	0.001293	-0.001203
01083	11945867	-9.802605	-0.299730	0.269180	-0.005997	0.000992	-0.001064
01084	11945917	-9.801228	-0.300250	0.277920	-0.003950	-0.000034	0.000497
01085	11945967	-9.798754	-0.316626	0.258094	-0.002632	0.001661	-0.002287
01086	11946017	-9.817806	-0.304966	0.271991	-0.002925	0.003950	-0.001407
01087	11946067	-9.810324	-0.306773	0.260512	-0.003494	0.002778	-0.000963
01088	11946117	-9.810451	-0.303713	0.275694	-0.004215	-0.000788	-0.000664
01089	11946167	-9.814896	-0.286846	0.266299	-0.003860	-0.001203	-0.003678
01090	11946217	-9.803516	-0.285933	0.273647	-0.001963	0.001570	-0.003700
01091	11946267	-9.803144	-0.272535	0.262412	-0.005301	0.001199	-0.000709
01092	11946317	-9.800549	-0.307766	0.261322	-0.002485	0.004546	0.002725
01093	11946367	-9.804096	-0.287421	0.253671	-0.004529	0.003115	-0.001603
01094	11946417	-9.803022	-0.316404	0.254290	-0.008050	-0.001211	-0.002417
01095	11946467	-9.805123	-0.291318	0.273919	-0.004439	0.000014	-0.002002
01096	11946517	-9.814601	-0.298770	0.280672	-0.003126	0.000741	-0.006842
01097	11946567	-9.826860	-0.298697	0.260400	-0.001314	0.000591	-0.000211
01098	11946617	-9.840814	-0.290103	0.265898	-0.004041	0.001999	0.000479
01099	11946667	-9.819283	-0.308077	0.286976	-0.005542	-0.001523	-0.002906
01100	11946717	-9.821949	-0.303788	0.285425	-0.003875	0.003575	-0.002879
01101	11946767	-9.811291	-0.294267	0.276140	-0.005016	-0.000799	-0.001299
01102	11946817	-9.782817	-0.288914	0.281916	-0.005379	0.001746	-0.000133
01103	11946867	-9.778372	-0.293622	0.265579	-0.004832	0.002725	0.001152
01104	11946917	-9.788649	-0.286343	0.256581	-0.002154	0.001736	-0.002545
01105	11946967	-9.784048	-0.303303	0.278597	-0.005903	0.001258	0.002972
01106	11947017	-9.814169	-0.306610	0.265411	-0.005492	-0.000609	0.002548
01107	11947067	-9.815837	-0.287081	0.265184	-0.003558	-0.001453	-0.001913
01108	11947117	-9.826499	-0.288740	0.259185	-0.002885	-0.000471	-0.002039
01109	11947167	-9.811430	-0.316784	0.266287	-0.003690	-0.000353	0.000396
01110	11947217	-9.810552	-0.298060	0.280169	-0.007985	0.001412	0.001890
01111	11947267	-9.811354	-0.305540	0.271353	-0.003948	-0.000098	0.000560
01112	11947317	-9.798052	-0.282839	0.268055	-0.004918	0.003267	-0.002113
01113	11947367	-9.792048	-0.302368	0.261383	-0.008138	0.001659	-0.004354
01114	11947417	-9.803116	-0.293393	0.260933	-0.006214	0.000897	0.001657
01115	11947467	-9.788323	-0.296141	0.262140	-0.008475	-0.001573	-0.001106
01116	11947517	-9.788912	-0.287636	0.263471	-0.005908	0.002152	-0.002631
01117	11947567	-9.802953	-0.294893	0.277053	-0.002949	-0.000508	-0.002266
01118	11947617	-9.785410	-0.307784	0.277928	-0.002731	0.000589	-0.003673
01119	11947667	-9.811390	-0.305721	0.276243	-0.003561	0.003711	-0.003205
01120	11947717	-9.825598	-0.293782	0.278187	-0.005322	-0.001454	-0.003062
01121	11947767	-9.815304	-0.310262	0.263672	-0.002699	0.000729	-0.000912
01122	11947817	-9.823232	-0.287611	0.268472	-0.001796	0.001651	-0.000688
01123	11947867	-9.819557	-0.281845	0.278578	-0.000704	0.001243	-0.003797
01124	11947917	-9.795382	-0.281979	0.297087	-0.000895	0.002698	0.001170
01125	11947967	-9.774002	-0.286193	0.275391	-0.004728	0.001269	-0.002383
01126	11948017	-9.780182	-0.286759	0.274991	-0.004736	0.000462	-0.001007
01127	11948067	-9.794204	-0.270150	0.275515	-0.006048	0.003501	-0.003745
01128	11948117	-9.794720	-0.280815	0.264508	0.000635	0.000495	0.000324
01129	11948167	-9.797886	-0.288960	0.253109	-0.006700	-0.001219	-0.001650
01130	11948217	-9.804109	-0.289452	0.260566	-0.002685	-0.000922	-0.002975
01131	11948267	-9.823100	-0.298604	0.268518	-0.007202	-0.001613	-0.002579
01132	11948317	-9.821549	-0.292213	0.274516	-0.005541	-0.001260	-0.000566
01133	11948367	-9.801508	-0.311859	0.268824	-0.004643	0.001493	-0.003020
01134	11948417	-9.828185	-0.303111	0.252296	-0.007541	-0.001041	-0.002798
01135	11948467	-9.794331	-0.299310	0.277768	-0.004546	-0.000632	-0.002713
01136	11948517	-9.801618	-0.301123	0.265691	-0.005803	0.002930	-0.001792
01137	11948567	-9.799389	-0.289011	0.266210	-0.004496	0.000951	-0.002640
01138	11948617	-9.779034	-0.287599	0.283854	-0.001300	0.000944	-0.002424
01139	11948667	-9.798272	-0.278552	0.256970	-0.003746	-0.003421	0.000828
01140	11948717	-9.788358	-0.318932	0.275281	-0.006384	0.000820	-0.003791
01141	11948767	-9.815336	-0.294525	0.275377	-0.003125	0.002301	-0.000875
01142	11948817	-9.821042	-0.299898	0.285019	-0.004515	0.001796	0.000861
01143	11948867	-9.811082	-0.309350	0.272494	-0.008109	0.002118	-0.000282
01144	11948917	-9.827742	-0.305598	0.261824	-0.003738	-0.000646	-0.000434
01145	11948967	-9.823220	-0.293990	0.279810	-0.003421	-0.000642	-0.000532
01146	11949017	-9.794444	-0.285611	0.267781	-0.003658	0.003970	-0.000833
01147	11949067	-9.803228	-0.292453	0.277452	-0.003409	0.003397	0.000736
01148	11949117	-9.780014	-0.288582	0.291295	-0.001650	0.001074	0.000425
01149	11949167	-9.789474	-0.301115	0.265945	-0.001147	0.000528	0.001260
01150	11949217	-9.793627	-0.295884	0.272034	-0.003067	-0.000704	-0.001176
01151	11949267	-9.800080	-0.313340	0.272675	-0.004617	0.002985	-0.000385
01152	11949317	-9.815169	-0.270324	0.277098	-0.003047	-0.000084	0.001038
01153	11949367	-9.807001	-0.291990	0.269790	-0.004978	0.003106	-0.002146
01154	11949417	-9.808019	-0.301550	0.262700	-0.004712	-0.000118	-0.000721
01155	11949467	-9.825190	-0.290479	0.282632	-0.005826	0.000475	-0.002734
01156	11949517	-9.831672	-0.282923	0.275258	-0.005270	0.003162	-0.003038
01157	11949567	-9.816771	-0.312734	0.274530	-0.005566	-0.001547	0.000332
01158	11949617	-9.812188	-0.300037	0.279267	-0.003719	-0.001453	-0.001467
01159	11949667	-9.806570	-0.280816	0.255004	-0.000750	0.000829	-0.000663
01160	11949717	-9.790750	-0.316690	0.272101	-0.007318	0.003293	-0.001273
01161	11949767	-9.791921	-0.297341	0.268433	-0.005443	0.006445	-0.005110
01162	11949817	-9.794466	-0.297375	0.257406	-0.004204	-0.000498	-0.003191
01163	11949867	-9.785209	-0.282717	0.271130	-0.004839	0.001724	-0.001775
01164	11949917	-9.795032	-0.285372	0.285552	-0.005233	0.003237	0.000164
01165	11949967	-9.809448	-0.304893	0.268366	-0.009534	0.002310	-0.005601
01166	11950017	-9.823697	-0.302895	0.258792	-0.003142	-0.002508	-0.001185
01167	11950067	-9.821410	-0.305794	0.279717	-0.004186	0.001385	0.000948
01168	11950117	-9.817186	-0.295611	0.269260	-0.002415	-0.000171	-0.001659
01169	11950167	-9.806855	-0.308874	0.281077	-0.003212	0.000181	0.003759
01170	11950217	-9.789577	-0.301967	0.284620	-0.002805	0.002047	-0.001903
01171	11950267	-9.771345	-0.285763	0.268977	-0.002463	0.000574	0.001355
01172	11950317	-9.779007	-0.280079	0.264117	-0.007153	0.003333	0.000131
01173	11950367	-9.790671	-0.276347	0.255848	-0.004232	0.000896	0.000078
01174	11950417	-9.800115	-0.296885	0.284460	-0.002402	0.000345	-0.001752
01175	11950467	-9.795064	-0.285366	0.291667	-0.003891	-0.000333	-0.003965
01176	11950517	-9.820408	-0.296462	0.252896	-0.003405	0.000615	-0.003351
01177	11950567	-9.831839	-0.304376	0.269425	-0.003050	0.002819	-0.001739
01178	11950617	-9.831187	-0.281076	0.271214	0.000238	-0.000893	0.000383
01179	11950667	-9.815710	-0.311038	0.254885	-0.003808	-0.002677	-0.000518
01180	11950717	-9.808647	-0.292714	0.268838	-0.007263	0.001516	-0.000580
01181	11950767	-9.812269	-0.276555	0.282589	-0.004545	0.000565	-0.000080
01182	11950817	-9.798300	-0.278895	0.261960	-0.006203	-0.001595	0.000075
01183	11950867	-9.797123	-0.294289	0.257371	-0.006676	0.000174	-0.001135
01184	11950917	-9.776649	-0.304584	0.278268	-0.005189	0.003584	-0.002979
01185	11950967	-9.782903	-0.281122	0.279609	-0.000869	-0.002500	-0.000396
01186	11951017	-9.817312	-0.289317	0.276855	-0.006483	0.000146	-0.000493
01187	11951067	-9.809421	-0.308255	0.271813	-0.005392	-0.001262	-0.003131
01188	11951117	-9.828095	-0.291550	0.253108	-0.003389	0.002391	-0.002667
01189	11951167	-9.825206	-0.297984	0.261316	-0.003996	0.001390	-0.000170
01190	11951217	-9.826978	-0.297114	0.277624	-0.005116	0.001428	-0.000969
01191	11951267	-9.807177	-0.314722	0.268188	-0.005839	-0.000070	-0.002200
01192	11951317	-9.803213	-0.304093	0.260977	-0.006300	0.001410	-0.000647
01193	11951367	-9.802980	-0.286761	0.265304	-0.004240	0.000161	0.002418
01194	11951417	-9.804853	-0.285974	0.257826	-0.005058	0.001821	0.001854
01195	11951467	-9.792600	-0.301263	0.271924	-0.004967	0.001851	0.000634
01196	11951517	-9.800062	-0.296396	0.274176	-0.001965	-0.001065	0.000705
01197	11951567	-9.801382	-0.285531	0.273660	-0.001488	0.000947	-0.001013
01198	11951617	-9.809362	-0.294915	0.273944	-0.001981	0.001326	-0.001042
01199	11951667	-9.813847	-0.294110	0.265311	-0.003094	0.002275	0.000089
01200	11951717	-9.835608	-0.299844	0.252692	-0.001841	0.002202	0.000596
01201	11951767	-9.828976	-0.293849	0.284344	-0.000188	0.000387	-0.000246
01202	11951817	-9.805883	-0.301099	0.261344	-0.002129	0.005062	-0.001794
01203	11951867	-9.812351	-0.304406	0.275929	-0.005855	-0.000388	0.000434
01204	11951917	-9.806651	-0.308015	0.285213	-0.002132	-0.000903	0.000453
01205	11951967	-9.786304	-0.307519	0.266410	-0.004418	0.000604	0.000079
01206	11952017	-9.782847	-0.317209	0.266413	-0.001389	0.000818	-0.000698
01207	11952067	-9.792321	-0.297701	0.257368	-0.009103	-0.000029	-0.000583
01208	11952117	-9.796222	-0.300837	0.278364	-0.005321	0.002449	-0.005709
01209	11952167	-9.794866	-0.292551	0.272638	-0.006986	0.001878	-0.000707
01210	11952217	-9.813146	-0.291138	0.259242	-0.003056	0.003114	-0.001032
01211	11952267	-9.804092	-0.312864	0.266523	-0.004975	-0.000252	-0.002933
01212	11952317	-9.834909	-0.284353	0.261400	-0.004648	-0.001338	-0.001785
01213	11952367	-9.821337	-0.307103	0.270637	-0.006371	0.001600	-0.000803
01214	11952417	-9.799812	-0.295652	0.271472	-0.004361	0.003058	0.001792
01215	11952467	-9.798637	-0.269139	0.259082	-0.004358	-0.002365	0.000064
01216	11952517	-9.795650	-0.289819	0.278834	-0.005067	0.004145	-0.000411
01217	11952567	-9.806505	-0.294118	0.271836	-0.001415	-0.000443	-0.000606
01218	11952617	-9.804139	-0.275559	0.275071	-0.003650	0.001717	0.001111
01219	11952667	-9.792868	-0.282787	0.277493	-0.006355	-0.000491	0.003416
01220	11952717	-9.810426	-0.293876	0.288282	-0.005513	0.001037	0.000760
01221	11952767	-9.813762	-0.322759	0.268842	-0.005093	0.004020	0.002443
01222	11952817	-9.803392	-0.317935	0.278436	-0.004591	0.001856	-0.002380
01223	11952867	-9.806320	-0.310278	0.274568	-0.007553	0.003644	-0.000856
01224	11952917	-9.805183	-0.312491	0.249785	-0.004674	-0.000465	-0.000018
01225	11952967	-9.804543	-0.297435	0.268861	-0.002997	0.000910	-0.004024
01226	11953017	-9.791695	-0.318244	0.274496	-0.003435	0.003646	-0.003624
01227	11953067	-9.799488	-0.276402	0.256905	-0.004967	-0.001180	0.001388
01228	11953117	-9.785828	-0.295717	0.282170	-0.006457	0.002337	-0.002693
01229	11953167	-9.802453	-0.281236	0.284694	-0.006720	0.001562	-0.000613
01230	11953217	-9.802736	-0.310884	0.274316	-0.004801	0.002794	0.001696
01231	11953267	-9.799588	-0.296218	0.274117	-0.005037	0.000650	-0.002258
01232	11953317	-9.786535	-0.304081	0.258972	-0.002956	0.000890	-0.000083
01233	11953367	-9.823779	-0.289027	0.282181	-0.006303	-0.001658	-0.001015
01234	11953417	-9.812194	-0.292716	0.264151	-0.002722	0.000140	-0.003545
01235	11953467	-9.801680	-0.309447	0.253949	-0.001656	0.003235	0.000438
01236	11953517	-9.791250	-0.295175	0.272890	-0.004356	0.001672	-0.001648
01237	11953567	-9.792084	-0.304068	0.269757	-0.007376	0.000004	-0.000718
01238	11953617	-9.785803	-0.314237	0.277594	-0.001150	0.003235	-0.003731
01239	11953667	-9.805048	-0.275710	0.268893	-0.008637	0.001856	0.001513
01240	11953717	-9.793487	-0.300583	0.258522	-0.002948	0.001758	-0.000210
01241	11953767	-9.780617	-0.309929	0.276431	-0.004426	-0.000203	0.001485
01242	11953817	-9.807515	-0.297189	0.248030	-0.006609	0.000783	-0.003850
01243	11953867	-9.797868	-0.301867	0.277814	-0.004500	-0.002916	0.000286
01244	11953917	-9.817542	-0.286880	0.269640	-0.002176	0.000480	-0.002107
01245	11953967	-9.829482	-0.299494	0.262969	-0.005893	0.002606	-0.002528
01246	11954017	-9.809368	-0.294254	0.272336	-0.004501	-0.001213	-0.003647
01247	11954067	-9.797057	-0.299176	0.255931	-0.001629	0.000426	0.000231
01248	11954117	-9.791611	-0.277521	0.255350	-0.003459	0.001913	0.000724
01249	11954167	-9.785102	-0.289036	0.266077	-0.002535	0.003698	-0.001577
01250	11954217	-9.794359	-0.290505	0.264523	-0.001986	-0.000616	0.000448
01251	11954267	-9.791782	-0.288458	0.267834	-0.006064	0.001991	-0.002504
01252	11954317	-9.804546	-0.292754	0.259488	-0.004695	0.002144	-0.002475
01253	11954367	-9.817553	-0.302434	0.266040	-0.005347	0.002782	0.000542
01254	11954417	-9.826346	-0.286446	0.268709	-0.003569	0.001172	0.000466
01255	11954467	-9.833951	-0.288759	0.270998	-0.005659	-0.000579	0.000785
01256	11954517	-9.815896	-0.303903	0.270361	-0.005594	0.000326	-0.000046
01257	11954567	-9.793961	-0.324162	0.268554	-0.001966	0.003643	-0.004683
01258	11954617	-9.789291	-0.295935	0.265192	-0.005604	0.001547	-0.000041
01259	11954667	-9.799751	-0.298241	0.265811	-0.005025	-0.001670	-0.000732
01260	11954717	-9.798712	-0.287553	0.269505	-0.005360	0.003003	-0.002308
01261	11954767	-9.804657	-0.300487	0.255549	-0.004757	-0.002019	-0.000765
01262	11954817	-9.801278	-0.314842	0.277536	-0.006464	-0.000733	-0.003835
01263	11954867	-9.785275	-0.291102	0.259738	-0.009528	-0.000945	-0.003123
01264	11954917	-9.790104	-0.300167	0.288682	-0.001001	0.000496	-0.004224
01265	11954967	-9.807336	-0.285110	0.271998	-0.003432	0.001848	-0.000171
01266	11955017	-9.798576	-0.297966	0.268332	-0.002623	0.001540	0.000111
01267	11955067	-9.783895	-0.303644	0.255129	-0.002009	-0.000103	-0.004387
01268	11955117	-9.805214	-0.313809	0.256894	-0.003269	0.002687	-0.000648
01269	11955167	-9.795027	-0.300167	0.276781	-0.006075	0.000384	0.000469
01270	11955217	-9.813019	-0.284386	0.265354	-0.004859	-0.001799	-0.001729
01271	11955267	-9.809020	-0.298782	0.263424	-0.005738	-0.000457	-0.001428
01272	11955317	-9.809102	-0.301479	0.283640	-0.005293	-0.003517	-0.002918
01273	11955367	-9.794279	-0.299378	0.269483	-0.004625	0.003018	-0.000872
01274	11955417	-9.808734	-0.290209	0.278446	-0.004072	0.001999	0.001243
01275	11955467	-9.786449	-0.297934	0.271916	-0.002202	0.001352	-0.000627
01276	11955517	-9.795293	-0.296442	0.274111	-0.003390	0.001197	-0.002802
01277	11955567	-9.801320	-0.307763	0.269996	-0.003801	0.003488	-0.000034
01278	11955617	-9.794684	-0.320933	0.263149	-0.004673	-0.001958	-0.004391
01279	11955667	-9.808743	-0.293721	0.286416	-0.010980	-0.000519	-0.003240
01280	11955717	-9.804259	-0.300998	0.269387	-0.005959	0.001504	-0.003915
01281	11955767	-9.815030	-0.302178	0.280837	-0.004555	-0.004407	-0.001773
01282	11955817	-9.809196	-0.296919	0.289736	-0.004415	0.000738	0.002997
01283	11955867	-9.790221	-0.299120	0.266909	-0.007491	-0.000491	-0.001712
01284	11955917	-9.809594	-0.292200	0.266998	-0.001197	-0.000316	-0.002493
01285	11955967	-9.808566	-0.286032	0.281405	-0.004303	-0.001271	-0.002944
01286	11956017	-9.831134	-0.264492	0.265883	-0.006548	0.002013	-0.002273
01287	11956067	-9.803692	-0.291818	0.273917	-0.006694	0.000296	-0.004849
01288	11956117	-9.796187	-0.303238	0.277018	-0.006557	-0.000497	0.001840
01289	11956167	-9.811663	-0.307922	0.285893	-0.005467	0.001522	0.001017
01290	11956217	-9.827935	-0.286678	0.295447	-0.003023	-0.001922	0.000161
01291	11956267	-9.803226	-0.291819	0.275861	-0.001994	0.001743	-0.002256
01292	11956317	-9.821815	-0.289086	0.273551	-0.002535	-0.000136	0.000779
01293	11956367	-9.804380	-0.294436	0.275609	-0.005819	0.000348	-0.002193
01294	11956417	-9.802745	-0.300435	0.254521	-0.006370	0.001469	-0.001702
01295	11956467	-9.796009	-0.287766	0.256597	-0.005629	0.002781	0.001763
01296	11956517	-9.787745	-0.290545	0.272944	-0.005444	0.007075	0.000501
01297	11956567	-9.801237	-0.292735	0.264597	-0.002264	0.000022	-0.001916
01298	11956617	-9.809700	-0.284591	0.267631	-0.003754	0.001872	-0.000334
01299	11956667	-9.813334	-0.284564	0.278269	-0.003776	0.002451	-0.002343
01300	11956717	-9.828899	-0.291496	0.267582	-0.005608	-0.000291	-0.002003
01301	11956767	-9.827599	-0.299946	0.266365	-0.000037	0.000620	0.000903
01302	11956817	-9.819665	-0.285143	0.263478	-0.004679	-0.001371	-0.000376
01303	11956867	-9.798906	-0.289223	0.265497	-0.006032	-0.000107	-0.001299
01304	11956917	-9.795811	-0.305445	0.259952	-0.002944	0.001270	-0.003380
01305	11956967	-9.800673	-0.302598	0.269371	-0.007551	0.000349	-0.002412
01306	11957017	-9.796729	-0.306719	0.295473	-0.002699	0.000664	-0.001047
01307	11957067	-9.794829	-0.312426	0.270102	-0.005476	-0.000288	0.000270
01308	11957117	-9.806161	-0.312283	0.253078	-0.001802	0.000747	-0.000120
01309	11957167	-9.800719	-0.296005	0.264535	-0.008852	0.000333	0.000893
01310	11957217	-9.799073	-0.293636	0.261124	-0.001369	0.002106	-0.001583
01311	11957267	-9.809504	-0.299759	0.267414	-0.003856	0.004164	-0.000126
01312	11957317	-9.815193	-0.297671	0.259268	-0.004427	0.002725	-0.004011
01313	11957367	-9.804742	-0.295792	0.259083	0.003310	-0.000069	-0.000842
01314	11957417	-9.800403	-0.287191	0.272635	-0.005394	0.002131	-0.000904
01315	11957467	-9.803055	-0.300399	0.266522	-0.004099	0.000505	-0.001810
01316	11957517	-9.806079	-0.285812	0.302406	-0.007824	0.002224	0.000547
01317	11957567	-9.782691	-0.295492	0.275525	-0.003815	-0.000350	0.000685
01318	11957617	-9.795052	-0.293896	0.266897	-0.004917	0.001109	-0.001521
01319	11957667	-9.809097	-0.318273	0.278586	-0.003447	-0.002195	-0.003012
01320	11957717	-9.822310	-0.284010	0.265247	-0.004035	-0.003591	-0.001285
01321	11957767	-9.811339	-0.301086	0.259365	-0.004957	-0.000633	-0.000824
01322	11957817	-9.805859	-0.307403	0.270995	-0.003286	0.003235	-0.001864
01323	11957867	-9.818876	-0.300880	0.284025	-0.003113	0.002855	-0.000617
01324	11957917	-9.792012	-0.308877	0.269048	-0.001886	0.002256	-0.002263
01325	11957967	-9.809738	-0.280713	0.266320	-0.003000	-0.000726	0.001128
01326	11958017	-9.804375	-0.289707	0.264601	-0.001393	-0.001023	-0.001094
01327	11958067	-9.809328	-0.282180	0.279151	-0.005120	0.001553	-0.001257
01328	11958117	-9.798453	-0.307657	0.268913	-0.003052	0.000081	0.001805
01329	11958167	-9.809448	-0.309455	0.279668	-0.005075	0.002206	-0.000005
01330	11958217	-9.808562	-0.303024	0.276261	-0.006653	0.003368	-0.002781
01331	11958267	-9.804456	-0.291433	0.282557	-0.005438	0.000422	-0.001231
01332	11958317	-9.811115	-0.305013	0.268694	-0.002709	0.002149	-0.001193
01333	11958367	-9.805361	-0.298966	0.250222	-0.007005	0.000396	0.000631
01334	11958417	-9.808571	-0.277919	0.264796	-0.002328	0.001089	-0.001521
01335	11958467	-9.824804	-0.312511	0.263985	-0.001846	0.000904	-0.002870
01336	11958517	-9.829821	-0.274099	0.267119	-0.002390	0.000483	0.002420
01337	11958567	-9.810878	-0.286273	0.270144	-0.003672	0.000228	-0.000402
01338	11958617	-9.813655	-0.290100	0.265582	-0.005591	0.000323	-0.000621
01339	11958667	-9.788796	-0.296394	0.262058	-0.005040	0.002947	-0.001605
01340	11958717	-9.782598	-0.302084	0.272143	-0.003221	0.000045	0.000809
01341	11958767	-9.780601	-0.288542	0.267957	-0.007368	0.002804	-0.002530
01342	11958817	-9.806556	-0.286425	0.263420	-0.005496	-0.001066	-0.003131
01343	11958867	-9.814054	-0.314812	0.263204	-0.004485	0.000369	-0.003865
01344	11958917	-9.817858	-0.299705	0.270427	-0.007216	-0.001031	-0.001011
01345	11958967	-9.823014	-0.283587	0.262189	-0.004510	0.002307	-0.003466
01346	11959017	-9.831210	-0.300699	0.274790	-0.001396	-0.000224	-0.004257
01347	11959067	-9.815402	-0.312684	0.283751	-0.003692	0.001811	-0.002062
01348	11959117	-9.812346	-0.299081	0.262962	-0.002736	-0.000114	-0.002138
01349	11959167	-9.793137	-0.286877	0.291776	-0.005550	0.003134	0.000321
01350	11959217	-9.778434	-0.297278	0.283442	-0.003106	-0.000602	-0.001341
01351	11959267	-9.795907	-0.290894	0.285115	-0.003953	0.002997	-0.001670
01352	11959317	-9.799962	-0.294446	0.255290	-0.007886	-0.004168	0.000191
01353	11959367	-9.802422	-0.289588	0.257330	-0.003690	0.000711	-0.002388
01354	11959417	-9.813637	-0.271545	0.261888	-0.003354	0.004397	-0.001373
01355	11959467	-9.833478	-0.269476	0.270445	-0.003210	0.001986	0.000058
01356	11959517	-9.814536	-0.298431	0.270133	-0.003121	0.001180	0.000530
01357	11959567	-9.815075	-0.284161	0.251504	-0.006685	-0.001469	0.001328
01358	11959617	-9.809567	-0.291826	0.261709	-0.004733	0.000471	0.001618
01359	11959667	-9.805286	-0.298755	0.276601	-0.004597	-0.001378	-0.005762
01360	11959717	-9.788891	-0.292488	0.269990	-0.005067	0.000750	-0.002417
01361	11959767	-9.782662	-0.297046	0.273552	-0.002381	0.000566	-0.004352
01362	11959817	-9.779397	-0.289211	0.269025	-0.002558	0.000376	-0.001817
01363	11959867	-9.788532	-0.294717	0.282555	-0.000893	0.000434	-0.001433
01364	11959917	-9.827453	-0.306528	0.274375	-0.002325	-0.001205	0.001587
01365	11959967	-9.823485	-0.296777	0.267371	-0.007653	0.001114	-0.002170
01366	11960017	-9.824137	-0.304243	0.272170	-0.005654	0.000468	-0.004683
01367	11960067	-9.823138	-0.283122	0.259164	-0.002754	0.003038	-0.003583
01368	11960117	-9.815785	-0.268188	0.274363	-0.003975	0.000641	0.003107
01369	11960167	-9.800020	-0.288382	0.268768	-0.005191	-0.000066	-0.002118
01370	11960217	-9.776794	-0.294912	0.260016	-0.005762	-0.001210	-0.003248
01371	11960267	-9.776793	-0.286710	0.283028	-0.004078	-0.001792	-0.001526
01372	11960317	-9.784847	-0.301181	0.266770	-0.006164	-0.000408	-0.001449
01373	11960367	-9.790035	-0.288174	0.270832	-0.006776	0.000545	-0.004742
01374	11960417	-9.810912	-0.282093	0.283450	-0.002258	-0.000498	-0.000974
01375	11960467	-9.793970	-0.300528	0.276804	-0.002976	0.001905	-0.002790
01376	11960517	-9.806788	-0.309710	0.289349	-0.003793	0.002341	-0.002432
01377	11960567	-9.825065	-0.284649	0.267376	-0.004672	0.001043	-0.000833
01378	11960617	-9.816613	-0.293579	0.266408	-0.002711	0.000623	-0.002411
01379	11960667	-9.828337	-0.295844	0.279867	-0.005309	0.002901	-0.002583
01380	11960717	-9.823268	-0.292782	0.262927	-0.002979	-0.001795	0.001843
01381	11960767	-9.823153	-0.285546	0.268091	-0.005425	0.000511	-0.001025
01382	11960817	-9.780260	-0.289827	0.273420	-0.003403	0.000617	0.002232
01383	11960867	-9.791550	-0.289351	0.286900	-0.003985	0.000236	-0.003341
01384	11960917	-9.789758	-0.298404	0.285340	-0.005089	0.003461	0.001994
01385	11960967	-9.795443	-0.286961	0.256410	-0.005122	0.002194	0.000610
01386	11961017	-9.782557	-0.309159	0.259135	-0.005727	-0.002174	-0.001297
01387	11961067	-9.808705	-0.294555	0.259151	-0.002138	0.000665	-0.001706
01388	11961117	-9.809097	-0.304374	0.266616	-0.003686	0.001157	-0.000224
01389	11961167	-9.843448	-0.290398	0.286465	-0.006539	-0.001802	-0.002509
01390	11961217	-9.810048	-0.302877	0.263929	-0.004019	0.002734	0.000454
01391	11961267	-9.821815	-0.282588	0.276515	-0.004304	0.000662	0.000127
01392	11961317	-9.808167	-0.288198	0.276926	-0.005032	0.000286	-0.002924
01393	11961367	-9.786963	-0.288509	0.274316	-0.003830	0.003062	0.001224
01394	11961417	-9.773579	-0.303092	0.258224	-0.002746	0.002784	-0.001666
01395	11961467	-9.781758	-0.299754	0.266461	-0.001658	0.000870	0.000245
01396	11961517	-9.774438	-0.298079	0.272013	-0.008757	-0.001550	-0.002120
01397	11961567	-9.800270	-0.289945	0.273547	-0.005817	-0.002569	-0.004825
01398	11961617	-9.818007	-0.295825	0.265275	-0.002279	-0.000685	0.001687
01399	11961667	-9.813354	-0.290038	0.272330	-0.003996	0.005052	0.000310
01400	11961717	-9.833949	-0.298791	0.270061	-0.005309	0.001933	0.000198
01401	11961767	-9.826736	-0.288628	0.275795	0.000174	-0.000878	-0.003642
01402	11961817	-9.815763	-0.328139	0.275552	-0.001378	-0.001263	-0.002999
01403	11961867	-9.805224	-0.295777	0.278370	-0.001869	-0.000981	-0.003482
01404	11961917	-9.793018	-0.297242	0.271771	-0.002174	0.000625	-0.004691
01405	11961967	-9.779336	-0.288433	0.274091	-0.003584	0.002195	-0.000289
01406	11962017	-9.766928	-0.302078	0.258763	-0.008638	-0.000291	-0.001891
01407	11962067	-9.779029	-0.295662	0.277401	-0.006422	0.002586	-0.003803
01408	11962117	-9.798392	-0.281694	0.260835	-0.001862	-0.000043	-0.002512
01409	11962167	-9.827228	-0.281259	0.263100	-0.004350	0.000917	-0.001214
01410	11962217	-9.817978	-0.305397	0.280064	-0.004585	0.001268	-0.000577
01411	11962267	-9.821283	-0.300509	0.265153	-0.004308	0.002658	-0.002109
01412	11962317	-9.833709	-0.302423	0.275550	-0.006653	0.004140	-0.000680
01413	11962367	-9.814815	-0.300316	0.258485	-0.005960	0.001144	-0.002816
01414	11962417	-9.807405	-0.294801	0.281032	-0.003107	-0.001867	0.000584
01415	11962467	-9.796851	-0.273363	0.264531	-0.004265	0.003337	-0.002202
01416	11962517	-9.786819	-0.300947	0.277783	-0.006073	0.000723	-0.000706
01417	11962567	-9.777869	-0.293981	0.279360	-0.001601	0.001034	-0.000427
01418	11962617	-9.798495	-0.290423	0.256685	-0.002962	0.001223	-0.004841
01419	11962667	-9.796526	-0.289887	0.245407	-0.003234	0.002229	-0.000320
01420	11962717	-9.805532	-0.287861	0.272984	-0.001916	0.004832	-0.002199
01421	11962767	-9.811071	-0.297622	0.263966	-0.004718	-0.000343	0.002266
01422	11962817	-9.834661	-0.295874	0.263143	-0.005094	0.000064	-0.002280
01423	11962867	-9.834727	-0.296445	0.275114	-0.004489	0.001663	0.002571
01424	11962917	-9.820082	-0.291245	0.283726	-0.004960	-0.000932	-0.000042
01425	11962967	-9.816671	-0.290519	0.270186	-0.002354	0.003533	-0.002592
01426	11963017	-9.814606	-0.297353	0.257450	-0.007379	0.003003	0.002868
01427	11963067	-9.787892	-0.282181	0.258346	-0.003584	0.001062	-0.001351
01428	11963117	-9.779140	-0.296818	0.258532	-0.003965	0.001793	-0.002088
01429	11963167	-9.776690	-0.306858	0.269552	-0.004264	0.001468	-0.000100
01430	11963217	-9.802698	-0.294144	0.251547	-0.004999	0.000129	-0.001927
01431	11963267	-9.796707	-0.292589	0.281228	-0.005993	-0.001758	-0.000527
01432	11963317	-9.808169	-0.308609	0.279476	-0.006147	0.002109	-0.002204
01433	11963367	-9.816238	-0.309531	0.276417	-0.003319	0.002973	0.000553
01434	11963417	-9.817270	-0.305375	0.280826	-0.002617	-0.002374	-0.000824
01435	11963467	-9.826256	-0.291222	0.280779	-0.006492	0.003110	0.000370
01436	11963517	-9.809226	-0.284013	0.285191	-0.000754	0.003762	0.000548
01437	11963567	-9.800635	-0.267362	0.286426	-0.002995	-0.000519	-0.002806
01438	11963617	-9.791058	-0.289788	0.286237	-0.003631	-0.002855	-0.002719
01439	11963667	-9.784617	-0.311586	0.289549	0.000004	-0.000529	-0.003932
01440	11963717	-9.776784	-0.293099	0.255592	-0.002950	0.002332	0.000736
01441	11963767	-9.778357	-0.302179	0.258993	-0.006910	0.002003	0.000839
01442	11963817	-9.818767	-0.292372	0.266167	-0.001808	0.001610	-0.000326
01443	11963867	-9.808369	-0.274437	0.281480	-0.002558	-0.001183	-0.000661
01444	11963917	-9.844447	-0.286116	0.284983	-0.006194	0.000433	-0.003012
01445	11963967	-9.834629	-0.304157	0.275377	-0.003237	0.001033	-0.003080
01446	11964017	-9.818208	-0.317521	0.264259	-0.004575	0.001074	-0.001378
01447	11964067	-9.818159	-0.297203	0.254666	-0.002939	0.001750	-0.000928
01448	11964117	-9.777608	-0.312930	0.274637	-0.006423	-0.000448	-0.002056
01449	11964167	-9.788220	-0.295045	0.261707	-0.008035	0.000172	0.000033
01450	11964217	-9.797012	-0.265243	0.274737	-0.002945	-0.001292	-0.003767
01451	11964267	-9.787783	-0.275834	0.266677	-0.003535	0.002678	-0.000222
01452	11964317	-9.779527	-0.295688	0.281775	-0.003579	0.000832	-0.000519
01453	11964367	-9.778752	-0.288088	0.256401	-0.002389	-0.000268	0.000912
01454	11964417	-9.810318	-0.290640	0.282604	-0.000376	0.004794	-0.002170
01455	11964467	-9.789782	-0.301448	0.256654	0.000164	0.001471	-0.004819
01456	11964517	-9.833011	-0.295095	0.264000	-0.002909	0.002072	0.001155
01457	11964567	-9.826097	-0.289923	0.251566	-0.001314	0.002003	-0.001767
01458	11964617	-9.825501	-0.288243	0.267897	-0.007144	0.001386	-0.000695
01459	11964667	-9.796597	-0.293209	0.263419	-0.000348	0.001927	-0.000106
01460	11964717	-9.813177	-0.270485	0.280736	-0.001492	0.000612	-0.000779
01461	11964767	-9.790804	-0.286510	0.276606	-0.003435	0.001384	-0.001186
01462	11964817	-9.804367	-0.285665	0.272312	-0.004845	0.001226	-0.003041
01463	11964867	-9.779579	-0.309444	0.279101	-0.002717	0.002880	-0.001475
01464	11964917	-9.816086	-0.294700	0.261134	-0.005675	0.000118	-0.002181
01465	11964967	-9.813222	-0.298326	0.266820	-0.006483	0.001492	-0.002939
01466	11965017	-9.815660	-0.299690	0.279097	-0.003195	0.001742	-0.001408
01467	11965067	-9.796849	-0.292627	0.265427	-0.002346	-0.000923	-0.002132
01468	11965117	-9.812163	-0.296381	0.283903	-0.005877	-0.000271	0.000055
01469	11965167	-9.801691	-0.291892	0.276804	-0.005904	0.001471	-0.001024
01470	11965217	-9.780677	-0.309124	0.263745	-0.005142	0.004137	0.002806
01471	11965267	-9.820481	-0.280169	0.286724	-0.006435	0.001104	-0.003199
01472	11965317	-9.805536	-0.294219	0.286641	-0.007515	0.003222	0.000723
01473	11965367	-9.807043	-0.304692	0.281132	-0.005411	0.002922	-0.005344
01474	11965417	-9.786206	-0.293381	0.279901	-0.005101	0.001518	-0.000191
01475	11965467	-9.816588	-0.283985	0.243133	-0.002594	0.001884	-0.002659
01476	11965517	-9.815302	-0.278670	0.254849	-0.005319	0.001222	-0.002082
01477	11965567	-9.799438	-0.294465	0.263622	-0.003574	0.002543	-0.001859
01478	11965617	-9.816462	-0.305610	0.265918	-0.008907	0.000711	0.001612
01479	11965667	-9.794719	-0.309782	0.264174	-0.003807	-0.000908	0.001810
01480	11965717	-9.811445	-0.296798	0.284136	-0.001775	0.000384	-0.000781
01481	11965767	-9.809550	-0.283746	0.259937	-0.002608	-0.001276	0.001485
01482	11965817	-9.800987	-0.304440	0.264456	-0.003920	-0.000495	-0.000812
01483	11965867	-9.809955	-0.289270	0.259670	-0.003365	0.000326	0.000761
01484	11965917	-9.781952	-0.295281	0.287884	-0.004282	-0.002078	0.000780
01485	11965967	-9.795956	-0.293652	0.277320	-0.003308	0.001615	0.000899
01486	11966017	-9.826586	-0.279555	0.271985	-0.006108	-0.001212	-0.002479
01487	11966067	-9.808944	-0.295371	0.261923	-0.005174	0.003771	-0.001814
01488	11966117	-9.831023	-0.290154	0.279167	-0.009251	0.002279	-0.001103
01489	11966167	-9.796735	-0.306051	0.273308	-0.009359	-0.000855	-0.004580
01490	11966217	-9.798063	-0.293478	0.270375	-0.003943	0.000818	-0.006286
01491	11966267	-9.812876	-0.295600	0.282022	-0.005339	-0.000065	-0.000034
01492	11966317	-9.800426	-0.300753	0.282171	-0.005259	-0.001879	-0.002775
01493	11966367	-9.807090	-0.296139	0.271987	-0.003277	-0.003714	-0.000768
01494	11966417	-9.799078	-0.285713	0.265390	-0.003561	0.000190	0.000761
01495	11966467	-9.798974	-0.299170	0.274441	-0.006238	0.002979	-0.001814
01496	11966517	-9.796337	-0.296047	0.266712	-0.001517	0.003055	-0.005447
01497	11966567	-9.808146	-0.280392	0.257529	-0.003442	-0.001384	0.002001
01498	11966617	-9.797123	-0.286533	0.257144	-0.007521	0.004087	-0.000972
01499	11966667	-9.821155	-0.295191	0.272890	-0.002947	0.000837	-0.004748
01500	11966717	-9.801782	-0.300048	0.269006	-0.007958	-0.001307	-0.001062
01501	11966767	-9.803020	-0.316008	0.270691	-0.004500	-0.000573	-0.001676
01502	11966817	-9.819145	-0.289576	0.283457	-0.006557	0.000944	-0.000602
01503	11966867	-9.818425	-0.283926	0.270950	-0.007704	0.000533	-0.002302
01504	11966917	-9.812769	-0.295631	0.265272	-0.003570	-0.003617	-0.000352
01505	11966967	-9.782489	-0.297859	0.263040	-0.006676	0.001519	-0.002816
01506	11967017	-9.796800	-0.277688	0.265396	-0.007864	-0.000411	-0.002690
01507	11967067	-9.789607	-0.287199	0.276215	-0.000620	0.003436	-0.002401
01508	11967117	-9.793192	-0.316877	0.261234	-0.004666	0.001880	0.000003
01509	11967167	-9.808514	-0.291782	0.263242	-0.004461	0.001168	-0.003748
01510	11967217	-9.797293	-0.317605	0.271827	-0.003023	0.000522	-0.000525
01511	11967267	-9.802385	-0.308545	0.268519	-0.003273	-0.000738	0.000208
01512	11967317	-9.816124	-0.296206	0.270580	-0.006434	-0.001924	0.000215
01513	11967367	-9.803171	-0.302088	0.265771	-0.003978	0.002440	-0.001183
01514	11967417	-9.803733	-0.276705	0.267366	-0.004332	-0.002563	0.001710
01515	11967467	-9.791073	-0.300680	0.271081	-0.005620	-0.000427	-0.000393
01516	11967517	-9.792027	-0.292616	0.255739	-0.002884	0.001006	-0.001318
01517	11967567	-9.794578	-0.290553	0.278323	-0.004680	0.000397	0.000316
01518	11967617	-9.799513	-0.295423	0.277557	-0.004030	0.000923	-0.001477
01519	11967667	-9.794742	-0.302479	0.252410	-0.005290	-0.000612	0.001077
01520	11967717	-9.782338	-0.311841	0.267987	-0.004818	-0.001347	0.001078
01521	11967767	-9.822503	-0.301226	0.271487	-0.004994	-0.001030	-0.000363
01522	11967817	-9.817840	-0.289933	0.265741	-0.003661	-0.000454	0.001144
01523	11967867	-9.798300	-0.311816	0.268691	-0.008927	0.000225	0.000580
01524	11967917	-9.811064	-0.299378	0.266861	-0.002812	0.000945	-0.000198
01525	11967967	-9.803903	-0.306113	0.277674	-0.003061	-0.002577	-0.001756
01526	11968017	-9.789005	-0.291601	0.265767	-0.001752	0.001636	-0.001963
01527	11968067	-9.779378	-0.309033	0.283698	-0.009581	0.000239	-0.003489
01528	11968117	-9.806428	-0.285282	0.257639	-0.006900	0.002707	-0.002484
01529	11968167	-9.794142	-0.291492	0.287329	-0.005480	0.001281	-0.002053
01530	11968217	-9.797608	-0.304384	0.257239	0.001840	0.000021	-0.003359
01531	11968267	-9.822187	-0.291373	0.276979	-0.007687	0.000440	-0.000154
01532	11968317	-9.816309	-0.301319	0.271505	-0.003637	-0.003160	0.003690
01533	11968367	-9.820308	-0.293454	0.285823	-0.001843	0.001379	-0.003272
01534	11968417	-9.809398	-0.284112	0.275519	-0.004724	-0.000351	-0.000809
01535	11968467	-9.821706	-0.285978	0.266448	-0.003616	0.000128	0.000346
01536	11968517	-9.807870	-0.292860	0.276722	-0.004168	-0.000560	0.001561
01537	11968567	-9.791589	-0.291290	0.258836	-0.004122	0.001561	-0.003365
01538	11968617	-9.801884	-0.290642	0.265567	-0.003389	0.001098	0.001438
01539	11968667	-9.801550	-0.293956	0.257411	-0.003821	0.001311	-0.001509
01540	11968717	-9.824492	-0.280677	0.282030	-0.004051	0.000270	-0.004105
01541	11968767	-9.796856	-0.294559	0.270529	-0.002437	0.004210	-0.002713
01542	11968817	-9.808806	-0.294277	0.276605	-0.003339	0.004684	0.001137
01543	11968867	-9.818158	-0.283660	0.264764	-0.002310	0.001077	-0.002571
01544	11968917	-9.807641	-0.312571	0.278815	-0.006016	0.001151	0.000194
01545	11968967	-9.816618	-0.299657	0.278820	-0.004146	0.001568	-0.000354
01546	11969017	-9.812137	-0.284889	0.257005	-0.004821	0.000352	-0.004394
01547	11969067	-9.803438	-0.299765	0.267025	-0.006284	0.001434	-0.000542
01548	11969117	-9.809629	-0.315332	0.259299	-0.002912	0.005405	0.002293
01549	11969167	-9.794428	-0.297600	0.268997	-0.005144	-0.002392	-0.000916
01550	11969217	-9.788805	-0.311540	0.273948	-0.003591	0.001190	-0.000547
01551	11969267	-9.805480	-0.318319	0.248584	-0.007323	0.001767	-0.001657
01552	11969317	-9.805647	-0.300194	0.277621	-0.004140	0.000341	-0.000168
01553	11969367	-9.842797	-0.289936	0.256924	-0.002456	0.001725	-0.001187
01554	11969417	-9.815070	-0.289875	0.240240	-0.003667	0.001378	-0.003688
01555	11969467	-9.806453	-0.292323	0.275935	-0.007112	0.000288	0.000066
01556	11969517	-9.782970	-0.299605	0.268215	-0.002667	-0.001894	-0.001597
01557	11969567	-9.806055	-0.300799	0.267558	-0.004495	0.000300	-0.002759
01558	11969617	-9.794888	-0.296266	0.263771	-0.004838	-0.001836	0.000815
01559	11969667	-9.800051	-0.284794	0.266676	-0.005659	-0.004429	-0.001404
01560	11969717	-9.800852	-0.295910	0.263604	-0.004794	0.002943	0.000426
01561	11969767	-9.807558	-0.308457	0.256945	-0.004420	0.004274	-0.001170
01562	11969817	-9.808830	-0.290496	0.272574	-0.005007	0.000354	-0.001736
01563	11969867	-9.831406	-0.284501	0.252387	-0.005142	0.000551	-0.001252
01564	11969917	-9.807763	-0.290693	0.253570	-0.006620	0.003301	-0.004029
01565	11969967	-9.791862	-0.325877	0.257659	-0.008475	0.001399	-0.001314
01566	11970017	-9.809808	-0.303915	0.264732	-0.003472	0.001005	-0.001902
01567	11970067	-9.798010	-0.295836	0.266358	-0.008345	-0.000332	0.002173
01568	11970117	-9.790761	-0.297110	0.292310	-0.005724	0.003843	0.001675
01569	11970167	-9.784554	-0.299384	0.254740	-0.004837	-0.001378	-0.001275
01570	11970217	-9.788736	-0.292934	0.262697	-0.003007	0.001300	-0.003154
01571	11970267	-9.782330	-0.314605	0.272258	0.001201	0.000565	-0.003430
01572	11970317	-9.795418	-0.294806	0.269363	-0.005537	0.001643	-0.002470
01573	11970367	-9.797986	-0.298861	0.269389	-0.002235	0.001317	-0.002062
01574	11970417	-9.828410	-0.300971	0.264333	-0.005187	0.000782	-0.001092
01575	11970467	-9.813207	-0.297927	0.263749	-0.001963	0.001036	0.000757
01576	11970517	-9.811502	-0.285760	0.271566	-0.002934	0.003502	0.000484
01577	11970567	-9.810996	-0.303245	0.263508	-0.007536	0.001059	-0.002019
01578	11970617	-9.808764	-0.281947	0.282696	-0.004026	-0.002450	0.002506
01579	11970667	-9.776972	-0.299640	0.261621	-0.004635	0.001500	-0.001065
01580	11970717	-9.806705	-0.293186	0.280742	-0.001951	0.001321	-0.002576
01581	11970767	-9.798420	-0.303204	0.271111	-0.001257	0.000459	-0.004957
01582	11970817	-9.790469	-0.293815	0.275621	-0.007477	0.000289	-0.000422
01583	11970867	-9.788686	-0.305464	0.280435	-0.004377	0.000478	-0.000011
01584	11970917	-9.820418	-0.291440	0.260859	-0.004585	0.000785	-0.003280
01585	11970967	-9.828347	-0.300629	0.252534	-0.003663	0.001938	-0.001507
01586	11971017	-9.808045	-0.299371	0.279175	-0.004415	0.003438	-0.004516
01587	11971067	-9.816478	-0.286980	0.269977	-0.003864	0.003321	-0.001469
01588	11971117	-9.820972	-0.300745	0.253938	-0.004415	0.001668	-0.000261
01589	11971167	-9.794965	-0.301414	0.286646	-0.004826	0.001369	-0.001898
01590	11971217	-9.780620	-0.299886	0.274867	-0.006425	0.000471	-0.000714
01591	11971267	-9.789752	-0.305221	0.259072	-0.002750	0.000270	-0.003640
01592	11971317	-9.807159	-0.274075	0.277694	-0.005137	-0.000700	0.001587
01593	11971367	-9.786410	-0.284446	0.254266	-0.006268	0.001474	-0.001831
01594	11971417	-9.801839	-0.292904	0.262429	-0.006318	0.002819	-0.004545
01595	11971467	-9.809296	-0.283851	0.257953	-0.003378	0.002234	0.000060
01596	11971517	-9.799973	-0.296424	0.277111	-0.002888	0.000661	-0.001747
01597	11971567	-9.832470	-0.297227	0.257333	-0.003890	0.000994	-0.002667
01598	11971617	-9.815785	-0.300213	0.260109	-0.005729	0.002842	0.001545
01599	11971667	-9.814302	-0.289956	0.270366	-0.003103	0.002892	0.002851
01600	11971717	-9.820716	-0.292985	0.273860	-0.004248	-0.000593	-0.000596
01601	11971767	-9.807590	-0.299593	0.282418	-0.009561	0.000607	-0.000864
01602	11971817	-9.794888	-0.301501	0.274117	-0.003516	0.003421	-0.002567
01603	11971867	-9.783917	-0.280835	0.266868	-0.003912	0.002903	-0.001156
01604	11971917	-9.793226	-0.279818	0.268940	-0.002488	0.001084	-0.003505
01605	11971967	-9.804761	-0.293589	0.275478	-0.004190	0.000475	-0.002255
01606	11972017	-9.809421	-0.289793	0.288128	-0.003400	0.001781	-0.002279
01607	11972067	-9.827690	-0.296227	0.291375	-0.007136	0.000619	-0.001765
01608	11972117	-9.801558	-0.304236	0.279730	-0.004177	0.001158	-0.000681
01609	11972167	-9.831240	-0.285170	0.265442	-0.006860	0.003141	-0.000597
01610	11972217	-9.823103	-0.289831	0.268420	-0.004815	-0.001825	0.001390
01611	11972267	-9.800648	-0.290613	0.258915	-0.008415	0.000727	-0.000546
01612	11972317	-9.793362	-0.277167	0.247540	-0.002767	0.000786	-0.004020
01613	11972367	-9.810428	-0.296507	0.273737	-0.002879	0.001401	-0.003599
01614	11972417	-9.791677	-0.300443	0.253029	-0.004227	0.003569	-0.003746
01615	11972467	-9.783813	-0.296200	0.282514	-0.005460	0.002291	-0.000864
01616	11972517	-9.792895	-0.277607	0.250398	-0.005656	0.003451	-0.000475
01617	11972567	-9.796758	-0.276845	0.256178	-0.004295	0.000630	-0.003119
01618	11972617	-9.804374	-0.294661	0.253524	-0.006130	0.004283	-0.001492
01619	11972667	-9.827951	-0.285827	0.274588	-0.005944	0.002282	-0.003391
01620	11972717	-9.828743	-0.295667	0.268106	-0.003595	0.001807	-0.003497
01621	11972767	-9.816024	-0.301102	0.263321	-0.000506	0.001149	-0.002710
01622	11972817	-9.814482	-0.293112	0.267627	0.000454	-0.000794	-0.000767
01623	11972867	-9.808093	-0.279280	0.284578	-0.006810	-0.000605	-0.002158
01624	11972917	-9.776671	-0.288056	0.265753	-0.004013	-0.001007	0.000072
01625	11972967	-9.788486	-0.304696	0.285014	-0.004070	0.000472	-0.003986
01626	11973017	-9.768991	-0.286636	0.253503	-0.004133	-0.000527	-0.004185
01627	11973067	-9.784924	-0.315448	0.270441	-0.003673	-0.002705	0.001378
01628	11973117	-9.818172	-0.286560	0.272645	-0.006859	-0.000253	-0.002734
01629	11973167	-9.825780	-0.308721	0.276958	-0.005680	0.002293	-0.000763
01630	11973217	-9.822018	-0.285946	0.278094	-0.005117	0.004786	0.000207
01631	11973267	-9.841334	-0.281337	0.272064	-0.004320	-0.001523	-0.000113
01632	11973317	-9.825969	-0.307430	0.266216	-0.001822	0.000485	-0.000402
01633	11973367	-9.824380	-0.307475	0.279569	-0.003117	0.002682	-0.003813
01634	11973417	-9.803407	-0.310757	0.283593	-0.006858	0.000912	-0.001865
01635	11973467	-9.806022	-0.289585	0.279004	-0.002655	0.001565	-0.002284
01636	11973517	-9.782909	-0.303854	0.267901	-0.002500	0.002667	-0.000646
01637	11973567	-9.776287	-0.300912	0.269284	-0.002584	0.002378	-0.000490
01638	11973617	-9.783580	-0.297357	0.246572	-0.004146	0.000956	-0.001935
01639	11973667	-9.809752	-0.297237	0.280184	-0.004231	0.003929	-0.001337
01640	11973717	-9.803319	-0.312250	0.272547	-0.003532	0.002907	-0.001985
01641	11973767	-9.805538	-0.296734	0.253134	-0.004609	0.000665	-0.000428
01642	11973817	-9.812567	-0.318619	0.279517	-0.006517	0.003277	-0.001561
