PacketCounter	SampleTimeFine	Acc_X	Acc_Y	Acc_Z	Gyr_X	Gyr_Y	Gyr_Z
00001	13286917	-9.782008	-0.292227	0.289761	-0.002199	0.001510	-0.002078
00002	13286967	-9.797768	-0.292063	0.295861	-0.003422	0.001910	-0.000923
00003	13287017	-9.789420	-0.298049	0.267605	-0.004808	0.001215	0.001868
00004	13287067	-9.801542	-0.298373	0.302612	-0.006557	-0.000371	-0.002459
00005	13287117	-9.850827	-0.292509	0.289735	-0.004914	-0.001302	0.003079
00006	13287167	-9.821548	-0.300139	0.307575	-0.005870	-0.001911	-0.002472
00007	13287217	-9.786110	-0.288289	0.290452	-0.005207	0.003526	-0.001609
00008	13287267	-9.786434	-0.284102	0.297075	-0.003681	0.000778	-0.000829
00009	13287317	-9.776666	-0.281778	0.291647	-0.004346	0.002670	-0.000533
00010	13287367	-9.791816	-0.275142	0.300833	-0.003885	0.001393	0.000906
00011	13287417	-9.789279	-0.303045	0.293882	-0.003715	0.003070	-0.000495
00012	13287467	-9.800893	-0.278833	0.312659	-0.004265	0.001059	-0.001115
00013	13287517	-9.787486	-0.296954	0.299582	-0.002519	0.003642	-0.000081
00014	13287567	-9.803159	-0.279187	0.294643	0.001226	0.004274	-0.005089
00015	13287617	-9.812719	-0.285133	0.312508	0.001422	0.000119	-0.002670
00016	13287667	-9.788527	-0.293057	0.305865	-0.003996	0.001904	0.000458
00017	13287717	-9.792313	-0.291705	0.300829	-0.002708	0.003177	-0.005145
00018	13287767	-9.813422	-0.280477	0.300503	-0.004518	-0.000076	-0.001183
00019	13287817	-9.820255	-0.296744	0.323369	-0.004327	-0.000913	0.000928
00020	13287867	-9.822359	-0.288450	0.299917	-0.007085	-0.001934	-0.002629
00021	13287917	-9.783753	-0.296123	0.311219	-0.003817	-0.002002	-0.000814
00022	13287967	-9.800250	-0.275312	0.318621	-0.008249	0.003928	0.001477
00023	13288017	-9.788715	-0.278659	0.308548	-0.005165	0.001038	-0.003196
00024	13288067	-9.790715	-0.286585	0.300633	-0.004654	0.000309	-0.000735
00025	13288117	-9.816443	-0.268485	0.303874	-0.004675	0.001822	-0.003090
00026	13288167	-9.807475	-0.272157	0.285917	-0.006865	0.000069	-0.003418
00027	13288217	-9.823814	-0.284471	0.295797	-0.006761	0.002310	0.000953
00028	13288267	-9.827902	-0.263505	0.298704	-0.003657	-0.000900	-0.000289
00029	13288317	-9.816998	-0.281920	0.265805	-0.004454	0.001888	-0.002483
00030	13288367	-9.795047	-0.280818	0.295315	-0.005413	0.003266	0.000149
00031	13288417	-9.803622	-0.275865	0.284339	-0.004095	0.002670	-0.002548
00032	13288467	-9.812416	-0.276560	0.283991	0.002064	0.000401	0.000667
00033	13288517	-9.808582	-0.278033	0.285092	-0.004338	0.004476	-0.000902
00034	13288567	-9.792297	-0.291054	0.295925	-0.002523	0.000603	-0.000189
00035	13288617	-9.807333	-0.281261	0.280481	-0.001305	0.005660	-0.000806
00036	13288667	-9.801600	-0.290750	0.297859	-0.002885	-0.000276	-0.002247
00037	13288717	-9.806904	-0.295079	0.278921	-0.001160	0.000855	-0.002529
00038	13288767	-9.812275	-0.285298	0.318692	-0.004917	0.002366	-0.003601
00039	13288817	-9.797896	-0.290010	0.274296	-0.005533	0.003042	0.000665
00040	13288867	-9.805688	-0.282527	0.287699	-0.002772	0.002506	-0.000597
00041	13288917	-9.817633	-0.284293	0.296735	-0.003086	0.001169	-0.003264
00042	13288967	-9.795950	-0.300873	0.289920	-0.006469	-0.000783	0.001768
00043	13289017	-9.794693	-0.293218	0.302117	-0.004917	-0.001468	0.001021
00044	13289067	-9.806885	-0.287008	0.297646	-0.002412	-0.000751	-0.000393
00045	13289117	-9.798883	-0.300183	0.301721	-0.005744	-0.002905	-0.000524
00046	13289167	-9.801686	-0.303788	0.299411	-0.005302	0.003622	-0.000907
00047	13289217	-9.823858	-0.290468	0.314931	-0.003736	0.001650	0.000527
00048	13289267	-9.817239	-0.281618	0.305812	-0.005907	0.002347	-0.003728
00049	13289317	-9.827241	-0.296259	0.295760	-0.009570	0.000801	-0.002220
00050	13289367	-9.799231	-0.295853	0.309978	-0.003718	0.004069	-0.001482
00051	13289417	-9.809315	-0.287645	0.305981	-0.000048	0.002226	-0.002465
00052	13289467	-9.810163	-0.281522	0.315555	-0.004979	0.001828	0.002003
00053	13289517	-9.799283	-0.286669	0.299234	-0.006367	0.002795	-0.001421
00054	13289567	-9.804945	-0.274619	0.267138	-0.005949	0.002867	-0.001065
00055	13289617	-9.795988	-0.284233	0.300784	-0.006796	0.006668	0.000686
00056	13289667	-9.807638	-0.269370	0.305450	-0.005002	0.003043	-0.003150
00057	13289717	-9.794564	-0.281842	0.296034	-0.004888	0.003529	-0.002705
00058	13289767	-9.811496	-0.277213	0.291148	-0.005633	-0.000130	-0.001181
00059	13289817	-9.811295	-0.285327	0.274393	-0.004063	-0.000458	-0.002144
00060	13289867	-9.799938	-0.277163	0.270008	-0.003561	0.001101	-0.000061
00061	13289917	-9.795146	-0.289109	0.290405	-0.004733	-0.000569	-0.003011
00062	13289967	-9.799873	-0.302836	0.274098	-0.005861	0.000126	0.001003
00063	13290017	-9.821562	-0.276579	0.299357	-0.001246	-0.000475	-0.003207
00064	13290067	-9.790025	-0.306396	0.305199	-0.004273	0.001047	-0.004253
00065	13290117	-9.789268	-0.289646	0.303023	-0.003733	0.000516	-0.000891
00066	13290167	-9.791860	-0.285489	0.289823	-0.002782	0.002823	-0.001202
00067	13290217	-9.803956	-0.293059	0.297265	-0.000574	0.003957	-0.000752
00068	13290267	-9.800325	-0.297036	0.296868	-0.007071	-0.000054	0.001264
00069	13290317	-9.803882	-0.278407	0.295164	-0.000826	0.001436	-0.002564
00070	13290367	-9.822351	-0.290281	0.301664	-0.008043	0.003312	-0.001825
00071	13290417	-9.808106	-0.293831	0.315611	-0.006161	-0.000589	0.000615
00072	13290467	-9.806726	-0.283475	0.302871	-0.004685	0.002406	0.000405
00073	13290517	-9.788833	-0.289995	0.312524	-0.003900	-0.003358	-0.000207
00074	13290567	-9.824343	-0.287572	0.311619	-0.001711	0.000833	-0.006181
00075	13290617	-9.807826	-0.273668	0.306974	0.001947	-0.000358	-0.003730
00076	13290667	-9.792354	-0.296272	0.315519	0.000022	0.000229	0.000538
00077	13290717	-9.789478	-0.292096	0.303661	-0.001582	0.003332	-0.001430
00078	13290767	-9.795801	-0.285867	0.313373	-0.000999	0.001082	0.000417
00079	13290817	-9.803219	-0.276790	0.300439	-0.008334	0.002404	-0.001351
00080	13290867	-9.807466	-0.279469	0.298122	-0.005326	-0.000003	-0.004769
00081	13290917	-9.810776	-0.301110	0.300780	-0.005010	0.000171	-0.002009
00082	13290967	-9.822680	-0.279258	0.294790	-0.000619	0.001188	-0.001245
00083	13291017	-9.792190	-0.281108	0.297013	-0.005370	0.002647	-0.000586
00084	13291067	-9.800106	-0.287457	0.318961	-0.001128	-0.001018	-0.000650
00085	13291117	-9.822672	-0.277753	0.289591	-0.005149	-0.001217	0.000353
00086	13291167	-9.795352	-0.294717	0.295616	-0.005726	0.000475	-0.004060
00087	13291217	-9.795292	-0.287236	0.310315	-0.004894	-0.001182	0.000001
00088	13291267	-9.805293	-0.300365	0.299024	-0.002530	0.002464	-0.005917
00089	13291317	-9.805370	-0.289214	0.287531	-0.004025	0.001347	-0.002936
00090	13291367	-9.817130	-0.284667	0.293632	-0.001037	-0.000052	-0.003332
00091	13291417	-9.811962	-0.263850	0.302370	-0.003117	0.002436	-0.000815
00092	13291467	-9.806039	-0.289685	0.320407	-0.002953	0.001047	-0.001052
00093	13291517	-9.813457	-0.291957	0.292810	-0.002538	0.004353	-0.000102
00094	13291567	-9.806673	-0.294913	0.317236	-0.004080	0.003251	-0.002988
00095	13291617	-9.801435	-0.279941	0.287737	-0.002336	0.001568	-0.003197
00096	13291667	-9.812243	-0.279257	0.300651	-0.005354	0.004232	-0.002500
00097	13291717	-9.813914	-0.272028	0.287354	-0.002766	0.002076	-0.002874
00098	13291767	-9.799720	-0.287337	0.294969	-0.005009	0.000037	-0.003230
00099	13291817	-9.789012	-0.278989	0.279984	-0.006269	0.003728	-0.002728
00100	13291867	-9.800974	-0.274967	0.279882	-0.004687	-0.000888	-0.001758
00101	13291917	-9.792894	-0.288529	0.271738	-0.002045	-0.003488	-0.000376
00102	13291967	-9.783189	-0.297079	0.297717	-0.005307	0.000750	0.000008
00103	13292017	-9.803298	-0.284482	0.290631	-0.002960	0.002369	-0.001235
00104	13292067	-9.800404	-0.297232	0.309605	-0.003963	-0.000388	-0.000672
00105	13292117	-9.790830	-0.299802	0.307477	-0.004918	-0.001866	-0.003624
00106	13292167	-9.796594	-0.313957	0.306431	0.000276	0.001399	0.001956
00107	13292217	-9.805478	-0.298907	0.286426	-0.002570	-0.002986	-0.001264
00108	13292267	-9.822857	-0.267812	0.300344	-0.002992	-0.000988	-0.002629
00109	13292317	-9.810712	-0.275328	0.315174	-0.004485	-0.000717	0.002407
00110	13292367	-9.787561	-0.300064	0.318075	-0.006807	0.002727	-0.000650
00111	13292417	-9.798034	-0.280174	0.316752	-0.003444	0.000688	0.001802
00112	13292467	-9.791939	-0.295246	0.323671	-0.004175	0.000317	-0.000830
00113	13292517	-9.806885	-0.286206	0.296393	-0.003693	0.000329	0.000100
00114	13292567	-9.815456	-0.294460	0.311992	-0.005846	0.002380	-0.003372
00115	13292617	-9.800229	-0.289383	0.303539	-0.002757	0.001052	-0.000118
00116	13292667	-9.808812	-0.302120	0.292690	-0.001321	-0.003219	-0.002266
00117	13292717	-9.793511	-0.278777	0.313482	-0.007175	-0.002163	-0.002211
00118	13292767	-9.805600	-0.292307	0.292038	-0.003092	0.002531	-0.000881
00119	13292817	-9.818365	-0.280087	0.292103	-0.003950	0.003423	-0.000139
00120	13292867	-9.805783	-0.283625	0.304800	-0.002935	0.000299	-0.003682
00121	13292917	-9.797918	-0.300896	0.300427	-0.004978	0.001461	-0.001589
00122	13292967	-9.803858	-0.294567	0.285553	-0.006802	0.004595	-0.000636
00123	13293017	-9.827015	-0.297004	0.300184	-0.006187	0.000147	-0.002422
00124	13293067	-9.795794	-0.299647	0.299730	-0.005353	0.000135	-0.000665
00125	13293117	-9.822540	-0.277053	0.305329	-0.006115	0.003058	-0.001127
00126	13293167	-9.785196	-0.309897	0.302710	-0.004603	0.003629	-0.002254
00127	13293217	-9.800576	-0.273024	0.288948	-0.004122	-0.000491	-0.002050
00128	13293267	-9.807051	-0.284032	0.279660	-0.005871	-0.000647	0.001963
00129	13293317	-9.803110	-0.290657	0.271690	-0.001637	0.001551	-0.004447
00130	13293367	-9.805724	-0.264566	0.294942	-0.002740	-0.000495	0.001283
00131	13293417	-9.821941	-0.277259	0.286686	-0.004645	0.001180	-0.000211
00132	13293467	-9.819706	-0.270525	0.296416	-0.006658	0.002047	-0.000968
00133	13293517	-9.795757	-0.287225	0.308537	-0.001975	0.001580	-0.001209
00134	13293567	-9.803554	-0.273057	0.308910	-0.003657	-0.000770	0.000127
00135	13293617	-9.815308	-0.307907	0.276139	-0.001328	0.000939	-0.003650
00136	13293667	-9.796820	-0.291571	0.296362	-0.001711	0.002361	-0.001432
00137	13293717	-9.799176	-0.295960	0.300658	-0.002286	0.002188	-0.002138
00138	13293767	-9.821805	-0.274140	0.296044	-0.000483	-0.000361	-0.002056
00139	13293817	-9.830312	-0.277423	0.292297	-0.004127	-0.002226	0.001373
00140	13293867	-9.802114	-0.300743	0.285419	-0.005241	-0.000543	-0.001758
00141	13293917	-9.805668	-0.277724	0.313549	-0.002489	0.003672	-0.000784
00142	13293967	-9.804496	-0.296220	0.315369	-0.005166	0.000361	-0.000148
00143	13294017	-9.803161	-0.291548	0.320612	-0.001638	0.001072	-0.000510
00144	13294067	-9.806864	-0.276985	0.312726	-0.003835	-0.000586	-0.002374
00145	13294117	-9.803961	-0.295305	0.303649	-0.008081	-0.000560	0.000139
00146	13294167	-9.798055	-0.291942	0.305339	-0.005098	-0.002991	-0.000299
00147	13294217	-9.798545	-0.284090	0.290308	-0.002331	0.004902	-0.000136
00148	13294267	-9.798241	-0.294756	0.301386	-0.006511	0.000339	-0.001012
00149	13294317	-9.803657	-0.276184	0.292269	-0.005838	0.001351	-0.001430
00150	13294367	-9.803954	-0.288273	0.287759	-0.005074	0.001264	-0.002680
00151	13294417	-9.819581	-0.287102	0.309177	-0.001178	-0.000408	-0.001543
00152	13294467	-9.821231	-0.282781	0.299620	-0.003696	0.001125	-0.004572
00153	13294517	-9.793992	-0.290182	0.298041	-0.003725	0.000226	-0.001533
00154	13294567	-9.817250	-0.291144	0.326463	-0.006247	0.000826	-0.003733
00155	13294617	-9.789126	-0.281892	0.303317	-0.003419	-0.000418	-0.002886
00156	13294667	-9.795071	-0.299252	0.298189	-0.002445	0.001884	-0.005602
00157	13294717	-9.808750	-0.276247	0.307895	-0.004585	0.002149	-0.000940
00158	13294767	-9.819295	-0.289379	0.306263	-0.000864	0.001761	-0.002202
00159	13294817	-9.792658	-0.307388	0.309945	-0.006086	0.004154	-0.000676
00160	13294867	-9.809033	-0.291173	0.306219	-0.002094	0.003326	-0.000591
00161	13294917	-9.801853	-0.290753	0.299949	-0.003464	0.002104	-0.001209
00162	13294967	-9.813067	-0.291055	0.303692	-0.005212	-0.001147	0.002601
00163	13295017	-9.788139	-0.307523	0.272561	-0.004227	0.001696	-0.004315
00164	13295067	-9.805406	-0.307021	0.290837	-0.003685	0.001969	-0.001911
00165	13295117	-9.807234	-0.291243	0.285894	-0.004042	0.000025	-0.000442
00166	13295167	-9.802684	-0.277290	0.290424	-0.003292	-0.000410	-0.000354
00167	13295217	-9.802194	-0.283646	0.301041	-0.002463	-0.002372	-0.002030
00168	13295267	-9.814232	-0.264292	0.283766	-0.002665	0.000250	0.000358
00169	13295317	-9.809626	-0.281368	0.305036	-0.005763	0.000902	-0.000308
00170	13295367	-9.807426	-0.295060	0.286136	-0.004034	0.000998	0.000236
00171	13295417	-9.816410	-0.288590	0.299820	-0.006385	0.000075	-0.003672
00172	13295467	-9.810956	-0.279458	0.286666	-0.006095	-0.000522	0.000969
00173	13295517	-9.800044	-0.275015	0.283023	-0.003531	-0.001030	-0.001157
00174	13295567	-9.808212	-0.286675	0.318391	-0.002970	0.003590	-0.003698
00175	13295617	-9.806745	-0.288875	0.317097	-0.004010	0.000156	-0.000670
00176	13295667	-9.809245	-0.285402	0.329490	-0.007436	0.001092	-0.002452
00177	13295717	-9.787916	-0.284299	0.305363	-0.006891	0.004233	-0.003748
00178	13295767	-9.825657	-0.281114	0.317350	-0.004376	0.001634	-0.001041
00179	13295817	-9.799449	-0.291365	0.297633	-0.003362	-0.001251	0.000378
00180	13295867	-9.802522	-0.282151	0.312643	-0.004397	0.002345	-0.001007
00181	13295917	-9.803813	-0.284458	0.295512	-0.002654	-0.002398	-0.000046
00182	13295967	-9.792425	-0.291621	0.317630	-0.002102	0.001548	-0.000634
00183	13296017	-9.812459	-0.296740	0.294376	-0.005297	-0.001642	-0.000446
00184	13296067	-9.817227	-0.320825	0.305554	-0.003204	0.001209	0.002286
00185	13296117	-9.789752	-0.294481	0.315760	-0.006128	0.000147	-0.003228
00186	13296167	-9.803856	-0.297620	0.291331	-0.000367	0.003927	-0.005654
00187	13296217	-9.800142	-0.278402	0.306011	-0.001901	-0.001707	0.000694
00188	13296267	-9.808305	-0.271424	0.303186	-0.005700	-0.001001	-0.000953
00189	13296317	-9.808764	-0.281305	0.280901	-0.002415	0.000117	-0.002084
00190	13296367	-9.807363	-0.285737	0.295320	-0.004597	-0.002565	-0.000457
00191	13296417	-9.778181	-0.294558	0.291982	0.000331	0.000588	0.000025
00192	13296467	-9.799319	-0.297936	0.289984	-0.006720	-0.000443	-0.002007
00193	13296517	-9.807656	-0.300266	0.295054	-0.002929	-0.000796	-0.001703
00194	13296567	-9.801195	-0.283193	0.294028	-0.002756	-0.000847	0.003173
00195	13296617	-9.797522	-0.292746	0.297600	-0.004198	0.000994	-0.000793
00196	13296667	-9.814010	-0.286591	0.293312	-0.005906	0.001181	-0.003703
00197	13296717	-9.821109	-0.282872	0.278474	-0.003420	0.002484	-0.004917
00198	13296767	-9.815242	-0.281005	0.288962	-0.001381	0.002045	-0.000668
00199	13296817	-9.807708	-0.276355	0.293541	-0.001964	0.000732	-0.006408
00200	13296867	-9.813375	-0.297974	0.290954	-0.002442	0.000820	-0.004931
00201	13296917	-9.803251	-0.289218	0.290807	-0.009808	0.003345	-0.002654
00202	13296967	-9.803085	-0.287440	0.299773	-0.005298	0.000197	-0.002582
00203	13297017	-9.814909	-0.276286	0.302163	-0.004318	0.001728	-0.002389
00204	13297067	-9.806812	-0.293536	0.299635	-0.003781	-0.001866	0.001631
00205	13297117	-9.811924	-0.266942	0.301240	-0.003077	0.001949	-0.000466
00206	13297167	-9.791516	-0.280758	0.302598	-0.003043	0.000650	-0.003745
00207	13297217	-9.809041	-0.289245	0.304263	-0.006603	0.004338	-0.001277
00208	13297267	-9.808101	-0.273398	0.312683	-0.006059	0.002383	-0.000136
00209	13297317	-9.803692	-0.286317	0.318258	-0.005481	-0.000836	0.000069
00210	13297367	-9.790355	-0.294664	0.296837	-0.005152	-0.000515	-0.003618
00211	13297417	-9.797474	-0.292768	0.288001	-0.006501	-0.002479	-0.005388
00212	13297467	-9.789042	-0.290216	0.306674	-0.004929	-0.001314	-0.001956
00213	13297517	-9.808688	-0.285755	0.317058	-0.006273	-0.000472	-0.005024
00214	13297567	-9.800207	-0.295218	0.312450	-0.002159	0.001124	-0.002526
00215	13297617	-9.824396	-0.270737	0.323837	-0.006861	0.000401	0.000305
00216	13297667	-9.810443	-0.294388	0.310283	-0.002137	0.003576	-0.002193
00217	13297717	-9.797987	-0.296737	0.303058	-0.001041	0.001205	-0.002883
00218	13297767	-9.808586	-0.282174	0.293773	-0.002979	0.002015	0.000461
00219	13297817	-9.794009	-0.270241	0.299757	-0.007768	-0.000297	0.000364
00220	13297867	-9.795410	-0.272604	0.299462	-0.000499	0.000451	0.000735
00221	13297917	-9.788388	-0.295856	0.288150	-0.002193	0.001187	-0.002077
00222	13297967	-9.808855	-0.280517	0.293975	-0.003310	0.002432	-0.000369
00223	13298017	-9.764282	-0.306240	0.301423	-0.002626	0.004794	-0.001869
00224	13298067	-9.789380	-0.294550	0.292639	-0.001384	0.005075	-0.003374
00225	13298117	-9.789195	-0.291733	0.294921	-0.002798	-0.001052	-0.003179
00226	13298167	-9.793917	-0.290187	0.285328	-0.003970	0.000802	-0.001436
00227	13298217	-9.799104	-0.290109	0.276772	-0.003851	0.001034	-0.001239
00228	13298267	-9.803490	-0.294130	0.301390	-0.007017	0.002172	-0.001515
00229	13298317	-9.792132	-0.300814	0.288328	-0.004245	0.003742	0.001404
00230	13298367	-9.817182	-0.304644	0.263843	-0.006168	0.001342	-0.002737
00231	13298417	-9.810075	-0.297570	0.295049	-0.007683	-0.002131	0.001285
00232	13298467	-9.809120	-0.291040	0.282537	-0.005193	0.000136	-0.001177
00233	13298517	-9.783835	-0.299404	0.291967	-0.005705	0.001030	-0.000148
00234	13298567	-9.804183	-0.274102	0.296438	-0.005313	0.000743	-0.002517
00235	13298617	-9.784646	-0.286083	0.318801	-0.003157	0.001493	-0.001114
00236	13298667	-9.784782	-0.291001	0.312319	-0.007453	0.002740	-0.001861
00237	13298717	-9.833655	-0.266444	0.310245	-0.007008	-0.000483	-0.003573
00238	13298767	-9.801182	-0.288845	0.302346	-0.003488	0.002978	-0.000718
00239	13298817	-9.810722	-0.283879	0.294206	-0.001401	0.001688	-0.001208
00240	13298867	-9.821083	-0.289067	0.286600	-0.005269	0.003720	0.000061
00241	13298917	-9.794343	-0.285109	0.307193	-0.004294	-0.000174	-0.001567
00242	13298967	-9.789209	-0.296349	0.307343	-0.002975	0.000760	0.000517
00243	13299017	-9.797542	-0.292354	0.299160	-0.002400	0.004765	-0.002282
00244	13299067	-9.812568	-0.255810	0.305987	-0.006019	0.004153	-0.001086
00245	13299117	-9.804597	-0.296395	0.292551	-0.008319	0.001792	-0.001931
00246	13299167	-9.803126	-0.297533	0.288511	-0.003663	0.001159	-0.002845
00247	13299217	-9.790541	-0.301563	0.301822	-0.005646	0.002192	-0.001457
00248	13299267	-9.818873	-0.283242	0.303717	-0.007878	-0.000209	-0.003733
00249	13299317	-9.798658	-0.285326	0.312403	-0.007186	0.001653	0.000375
00250	13299367	-9.804325	-0.286581	0.306277	-0.007595	-0.000714	0.000461
00251	13299417	-9.810713	-0.287918	0.301981	-0.007267	-0.000294	-0.004026
00252	13299467	-9.802364	-0.294307	0.273601	-0.004920	0.001790	0.001684
00253	13299517	-9.788627	-0.302009	0.301991	-0.004970	0.005338	-0.000735
00254	13299567	-9.815390	-0.268542	0.287349	-0.001032	0.002750	-0.004701
00255	13299617	-9.808930	-0.294083	0.295936	-0.006981	0.001074	-0.001296
00256	13299667	-9.792813	-0.277982	0.314820	-0.004072	0.000224	0.001189
00257	13299717	-9.800951	-0.279079	0.284384	-0.004897	0.001950	0.000499
00258	13299767	-9.796317	-0.296183	0.300115	-0.004840	0.004013	-0.003048
00259	13299817	-9.835493	-0.278205	0.284120	-0.007216	0.000061	-0.004823
00260	13299867	-9.811899	-0.284155	0.294049	-0.008669	0.000884	0.000150
00261	13299917	-9.807765	-0.269554	0.288513	-0.001610	-0.000057	-0.001418
00262	13299967	-9.794872	-0.293269	0.292744	-0.003842	0.002206	0.002956
00263	13300017	-9.791087	-0.314246	0.302342	-0.004508	0.002062	0.002897
00264	13300067	-9.794853	-0.298332	0.299573	-0.002996	-0.004031	-0.004482
00265	13300117	-9.789279	-0.305012	0.297471	-0.002794	0.001051	-0.001732
00266	13300167	-9.806237	-0.293550	0.282757	-0.001904	0.000294	-0.000228
00267	13300217	-9.790648	-0.285706	0.287720	-0.002018	0.001742	-0.001760
00268	13300267	-9.796689	-0.294502	0.320087	-0.009982	0.001896	0.000121
00269	13300317	-9.804662	-0.290406	0.291807	-0.003216	0.002402	-0.000889
00270	13300367	-9.803618	-0.278012	0.289927	-0.007075	0.000945	-0.000278
00271	13300417	-9.810503	-0.282197	0.295166	-0.006992	0.003628	0.000157
00272	13300467	-9.812581	-0.285838	0.292075	-0.003935	0.002607	-0.004473
00273	13300517	-9.799776	-0.288894	0.306479	-0.006896	-0.000927	-0.002369
00274	13300567	-9.800010	-0.284945	0.298336	-0.005330	-0.001574	0.001506
00275	13300617	-9.807797	-0.292660	0.302646	-0.004771	-0.000881	0.001854
00276	13300667	-9.813491	-0.283077	0.318497	-0.002979	0.000246	0.001568
00277	13300717	-9.813150	-0.287403	0.309859	-0.003204	0.000142	0.000866
00278	13300767	-9.788349	-0.269569	0.306620	-0.000570	0.001479	-0.001702
00279	13300817	-9.801079	-0.277207	0.300889	-0.002497	0.000928	-0.001317
00280	13300867	-9.804478	-0.272086	0.303116	-0.002833	0.001504	0.001033
00281	13300917	-9.792815	-0.289419	0.300189	-0.004174	0.001350	0.000840
00282	13300967	-9.810155	-0.277442	0.306275	-0.003704	0.000615	-0.000798
00283	13301017	-9.808577	-0.279472	0.284896	-0.001731	0.000878	-0.002020
00284	13301067	-9.817119	-0.296973	0.277020	-0.003503	0.001401	0.000488
00285	13301117	-9.799371	-0.295170	0.291796	-0.001637	0.001810	-0.003939
00286	13301167	-9.795239	-0.285860	0.299206	-0.004133	0.004226	-0.001004
00287	13301217	-9.788693	-0.292062	0.292633	-0.007594	0.004390	-0.000706
00288	13301267	-9.798906	-0.277422	0.297558	-0.002578	0.001280	-0.002049
00289	13301317	-9.787872	-0.289806	0.309521	-0.007700	0.001416	-0.002193
00290	13301367	-9.788382	-0.298095	0.292731	-0.005943	0.000480	-0.001983
00291	13301417	-9.800553	-0.278346	0.295697	-0.004178	-0.001813	-0.002480
00292	13301467	-9.795219	-0.284564	0.293679	-0.001774	0.003660	0.001807
00293	13301517	-9.794342	-0.280895	0.298459	0.000358	0.002754	-0.001056
00294	13301567	-9.806051	-0.282419	0.307437	-0.005031	0.001976	-0.002200
00295	13301617	-9.823376	-0.266445	0.303957	-0.002079	-0.000362	-0.003115
00296	13301667	-9.808081	-0.281854	0.288287	-0.004723	-0.000693	-0.000452
00297	13301717	-9.800632	-0.286217	0.286634	-0.007245	-0.000732	0.001032
00298	13301767	-9.783114	-0.301115	0.293181	0.000024	0.000873	-0.003342
00299	13301817	-9.787759	-0.307727	0.289081	-0.004154	0.003708	-0.001936
00300	13301867	-9.808822	-0.278992	0.286069	-0.006162	0.002445	-0.002159
00301	13301917	-9.799911	-0.290865	0.293946	-0.006610	0.003371	-0.001611
00302	13301967	-9.802268	-0.297397	0.302374	-0.001716	0.002488	-0.001403
00303	13302017	-9.812725	-0.287281	0.279507	-0.003775	-0.002518	-0.001551
00304	13302067	-9.802556	-0.288991	0.294692	-0.001136	0.001336	-0.001892
00305	13302117	-9.810385	-0.284229	0.318921	-0.006311	0.002217	-0.000366
00306	13302167	-9.808034	-0.286615	0.289497	-0.005050	0.000625	-0.001084
00307	13302217	-9.821356	-0.274894	0.301740	-0.006142	0.002801	-0.002059
00308	13302267	-9.796533	-0.281881	0.307222	-0.004902	-0.000685	0.002725
00309	13302317	-9.805022	-0.277420	0.322739	-0.006542	0.001240	-0.003098
00310	13302367	-9.804922	-0.279888	0.311745	-0.005679	0.000124	-0.002626
00311	13302417	-9.793820	-0.284389	0.297048	-0.007223	0.001851	0.001427
00312	13302467	-9.815280	-0.284361	0.301788	-0.000751	-0.000820	-0.002285
00313	13302517	-9.792554	-0.304420	0.286708	-0.004682	0.002282	-0.000341
00314	13302567	-9.818627	-0.279919	0.295729	-0.003482	0.001755	0.000489
00315	13302617	-9.815785	-0.292276	0.283264	-0.005342	0.001950	-0.000242
00316	13302667	-9.809122	-0.290379	0.280451	-0.003300	-0.001480	-0.003249
00317	13302717	-9.807173	-0.284689	0.301471	-0.002825	0.000117	-0.000803
00318	13302767	-9.803384	-0.276342	0.286991	-0.002855	0.002985	-0.002612
00319	13302817	-9.809130	-0.284076	0.307779	-0.004482	-0.001400	-0.001897
00320	13302867	-9.821991	-0.278845	0.298193	-0.002286	0.001389	0.000709
00321	13302917	-9.816510	-0.276323	0.291885	-0.004324	0.001929	-0.002038
00322	13302967	-9.806497	-0.276660	0.289909	-0.002377	0.003090	-0.002261
00323	13303017	-9.794909	-0.275101	0.299929	-0.004344	0.001174	-0.006244
00324	13303067	-9.794110	-0.284404	0.305142	-0.003792	0.001963	-0.006242
00325	13303117	-9.815732	-0.267442	0.301969	-0.004541	0.000795	-0.000793
00326	13303167	-9.815006	-0.278830	0.284905	-0.003748	0.001939	-0.001051
00327	13303217	-9.801143	-0.290217	0.298434	-0.000859	0.004832	-0.000975
00328	13303267	-9.814989	-0.282966	0.290249	-0.001115	-0.000565	-0.001682
00329	13303317	-9.816608	-0.290012	0.296407	-0.004110	0.003187	-0.004148
00330	13303367	-9.821361	-0.289511	0.294526	-0.005005	0.002241	-0.002195
00331	13303417	-9.789529	-0.302065	0.293491	-0.004978	-0.000823	-0.000387
00332	13303467	-9.796271	-0.297305	0.296154	-0.005515	-0.000066	-0.002815
00333	13303517	-9.811909	-0.278056	0.282536	-0.004482	-0.000206	-0.001764
00334	13303567	-9.811713	-0.286408	0.307532	0.000782	-0.002687	0.001353
00335	13303617	-9.782653	-0.304075	0.302840	0.000872	-0.001631	-0.002202
00336	13303667	-9.819853	-0.267554	0.313953	-0.005331	0.001229	-0.004192
00337	13303717	-9.795542	-0.282119	0.301622	-0.005438	0.001877	-0.001108
00338	13303767	-9.802485	-0.294981	0.294669	-0.002625	0.000864	-0.000863
00339	13303817	-9.805070	-0.298336	0.296351	-0.003609	0.003617	-0.002993
00340	13303867	-9.802755	-0.290637	0.291348	-0.005481	0.001166	-0.000473
00341	13303917	-9.802631	-0.284764	0.298042	-0.004552	0.002220	-0.000627
00342	13303967	-9.794741	-0.301236	0.286950	-0.002086	0.004832	-0.004854
00343	13304017	-9.805532	-0.279915	0.295005	-0.004024	0.000117	-0.006055
00344	13304067	-9.795763	-0.272519	0.280495	-0.007114	0.002301	-0.001071
00345	13304117	-9.786350	-0.290279	0.294626	-0.003111	0.001913	-0.002623
00346	13304167	-9.817859	-0.284699	0.296284	-0.005025	-0.002444	-0.002958
00347	13304217	-9.798581	-0.295708	0.320336	-0.006513	0.001538	0.001137
00348	13304267	-9.797360	-0.284035	0.292102	-0.002898	0.001799	0.002762
00349	13304317	-9.818013	-0.288460	0.289204	-0.006590	0.002691	-0.003378
00350	13304367	-9.797328	-0.272175	0.300177	-0.005660	0.001613	-0.002745
00351	13304417	-9.815978	-0.286536	0.303302	-0.004175	0.004318	-0.002474
00352	13304467	-9.801831	-0.282050	0.317169	-0.002735	0.002176	-0.003293
00353	13304517	-9.781798	-0.298366	0.307061	-0.004104	0.001128	0.000198
00354	13304567	-9.797284	-0.290820	0.293019	-0.004761	0.000565	-0.000572
00355	13304617	-9.771900	-0.308978	0.306417	-0.000130	0.004868	-0.002550
00356	13304667	-9.796025	-0.296987	0.294937	-0.002746	0.001436	-0.002079
00357	13304717	-9.805604	-0.280974	0.309182	-0.002993	-0.002828	-0.001495
00358	13304767	-9.794918	-0.281082	0.275637	-0.003152	0.003271	-0.002805
00359	13304817	-9.786071	-0.297980	0.303735	-0.002887	0.000852	-0.003175
00360	13304867	-9.797874	-0.281089	0.292641	-0.004392	-0.003076	-0.001045
00361	13304917	-9.808084	-0.284788	0.294521	-0.001511	0.000006	-0.000874
00362	13304967	-9.805322	-0.278156	0.295867	-0.006293	0.001636	0.000078
00363	13305017	-9.796805	-0.293746	0.298311	-0.003985	-0.000841	-0.001156
00364	13305067	-9.797581	-0.288483	0.297532	-0.003552	0.003044	-0.000562
00365	13305117	-9.817291	-0.279457	0.309476	-0.003440	0.000264	-0.000960
00366	13305167	-9.786379	-0.295010	0.308830	-0.003841	-0.002426	-0.003255
00367	13305217	-9.806091	-0.280533	0.310581	-0.001277	0.000557	-0.002729
00368	13305267	-9.811089	-0.274914	0.297367	-0.006649	0.000530	-0.001945
00369	13305317	-9.819309	-0.291939	0.313746	-0.005703	-0.000200	-0.003617
00370	13305367	-9.810463	-0.285389	0.294012	-0.002483	0.002347	-0.003164
00371	13305417	-9.818823	-0.286123	0.300082	-0.002869	-0.000627	-0.000422
00372	13305467	-9.805646	-0.293023	0.301962	-0.005977	0.000410	-0.002460
00373	13305517	-9.807728	-0.284191	0.311600	-0.004226	-0.002400	-0.003600
00374	13305567	-9.808314	-0.282400	0.327146	-0.004181	-0.001589	-0.000970
00375	13305617	-9.791932	-0.295905	0.285264	-0.006580	0.002239	-0.005241
00376	13305667	-9.804899	-0.295935	0.302145	-0.003429	0.002272	0.001261
00377	13305717	-9.802138	-0.294768	0.314812	-0.006672	0.002373	-0.001490
00378	13305767	-9.784206	-0.293072	0.300442	0.001772	-0.000808	-0.000956
00379	13305817	-9.807806	-0.271765	0.299786	-0.003098	0.000691	0.000288
00380	13305867	-9.789530	-0.283703	0.295512	-0.003620	0.004038	-0.000687
00381	13305917	-9.801143	-0.274960	0.306855	-0.002817	0.003955	-0.002357
00382	13305967	-9.802720	-0.292076	0.288959	-0.003291	0.001366	-0.002815
00383	13306017	-9.821242	-0.293690	0.283254	-0.005066	0.005042	-0.004167
00384	13306067	-9.818803	-0.271124	0.306361	-0.003932	-0.000618	-0.003494
00385	13306117	-9.813981	-0.292051	0.299372	-0.004168	-0.000004	-0.001504
00386	13306167	-9.818013	-0.284937	0.281882	-0.005003	0.000078	-0.000735
00387	13306217	-9.815887	-0.277584	0.309593	-0.004885	0.003465	-0.002895
00388	13306267	-9.807394	-0.272239	0.311013	-0.007226	0.001714	-0.000688
00389	13306317	-9.809825	-0.272519	0.280785	-0.006980	0.004144	-0.000674
00390	13306367	-9.787450	-0.295244	0.290529	-0.006840	0.002395	-0.004211
00391	13306417	-9.804979	-0.289255	0.301654	-0.003231	0.003052	0.001426
00392	13306467	-9.803843	-0.295768	0.286047	0.000089	0.004041	-0.000759
00393	13306517	-9.785344	-0.289731	0.285472	-0.006314	0.001448	0.002255
00394	13306567	-9.796521	-0.296340	0.295643	-0.005407	0.000744	-0.001276
00395	13306617	-9.801716	-0.284810	0.304299	-0.005957	0.001195	0.000560
00396	13306667	-9.788365	-0.301730	0.297075	-0.003736	-0.001681	-0.003089
00397	13306717	-9.806803	-0.287539	0.285102	-0.005854	0.001736	-0.002324
00398	13306767	-9.801040	-0.281082	0.303223	-0.005280	-0.003383	-0.001585
00399	13306817	-9.788773	-0.292943	0.307597	-0.002423	-0.000855	-0.005169
00400	13306867	-9.794631	-0.296831	0.299406	-0.004035	0.001871	-0.001211
00401	13306917	-9.795105	-0.298840	0.302770	-0.004835	0.002787	-0.003798
00402	13306967	-9.802465	-0.299332	0.300434	-0.004324	0.001892	-0.002559
00403	13307017	-9.809664	-0.287570	0.285191	-0.005253	-0.001223	-0.002825
00404	13307067	-9.816928	-0.283069	0.296753	-0.002896	0.000375	-0.000450
00405	13307117	-9.788749	-0.295213	0.308845	-0.004407	-0.000557	-0.000708
00406	13307167	-9.809597	-0.282889	0.304375	-0.008035	0.000794	-0.002483
00407	13307217	-9.798246	-0.300859	0.314075	-0.005124	0.002046	0.000653
00408	13307267	-9.803885	-0.291931	0.283969	-0.003194	0.000690	-0.000639
00409	13307317	-9.814596	-0.291266	0.281391	-0.006438	0.000055	0.000136
00410	13307367	-9.791635	-0.296978	0.316257	-0.000267	0.001261	0.001149
00411	13307417	-9.801130	-0.295182	0.307984	-0.002279	0.006060	-0.003658
00412	13307467	-9.777735	-0.291455	0.291452	-0.004990	0.002018	0.001581
00413	13307517	-9.798453	-0.301321	0.311037	-0.005253	-0.000057	-0.001025
00414	13307567	-9.808108	-0.305348	0.301950	-0.008549	0.001015	-0.000013
00415	13307617	-9.819267	-0.288106	0.299067	-0.002422	0.002347	-0.002201
00416	13307667	-9.804484	-0.284742	0.289701	-0.002772	0.000336	-0.002985
00417	13307717	-9.817790	-0.286183	0.288446	-0.002740	-0.001527	0.000759
00418	13307767	-9.814108	-0.276797	0.289417	-0.002870	0.004501	-0.003184
00419	13307817	-9.799560	-0.276491	0.285874	-0.005004	-0.000893	-0.001474
00420	13307867	-9.791975	-0.289405	0.278771	-0.003710	0.004711	-0.004175
00421	13307917	-9.798990	-0.283092	0.283880	-0.004102	0.001962	-0.000761
00422	13307967	-9.807336	-0.291478	0.302324	-0.006246	0.003349	0.001244
00423	13308017	-9.786775	-0.295027	0.295710	-0.004079	0.004286	-0.002544
00424	13308067	-9.794179	-0.299531	0.309782	-0.005384	0.000366	0.001161
00425	13308117	-9.795613	-0.293211	0.295915	-0.004163	-0.001363	-0.001580
00426	13308167	-9.816133	-0.284617	0.286145	-0.003663	0.000998	-0.003871
00427	13308217	-9.788997	-0.306585	0.294861	-0.006470	0.003249	-0.000039
00428	13308267	-9.807388	-0.273845	0.273810	-0.002965	0.003436	-0.002356
00429	13308317	-9.804310	-0.276470	0.282657	-0.001973	0.003622	-0.000404
00430	13308367	-9.798261	-0.289022	0.292811	-0.003510	-0.001967	-0.004242
00431	13308417	-9.810330	-0.284738	0.311316	-0.002655	0.000364	-0.006349
00432	13308467	-9.791246	-0.301518	0.300882	-0.003660	0.002132	-0.001784
00433	13308517	-9.789894	-0.285576	0.319279	-0.004932	0.002281	0.001872
00434	13308567	-9.810583	-0.273084	0.289236	-0.005649	0.000487	0.000580
00435	13308617	-9.807803	-0.285707	0.288704	-0.002693	0.001855	-0.003745
00436	13308667	-9.818463	-0.287630	0.282819	-0.004961	0.000655	-0.003067
00437	13308717	-9.804371	-0.283507	0.307143	-0.004049	0.001518	0.000617
00438	13308767	-9.781386	-0.284406	0.289823	-0.005869	0.002255	-0.001713
00439	13308817	-9.804165	-0.289923	0.324898	-0.003321	0.001824	0.000233
00440	13308867	-9.818447	-0.277409	0.299556	-0.001822	0.003944	-0.000080
00441	13308917	-9.814143	-0.272170	0.285720	-0.002790	-0.001011	-0.001290
00442	13308967	-9.799669	-0.297413	0.306523	-0.005926	-0.001036	0.000159
00443	13309017	-9.805313	-0.279503	0.297857	-0.003808	-0.000864	0.003201
00444	13309067	-9.800418	-0.285533	0.288723	-0.007168	0.001010	-0.000080
00445	13309117	-9.818726	-0.276265	0.302920	-0.006758	0.001142	-0.000081
00446	13309167	-9.804720	-0.288822	0.297025	-0.008057	0.004833	0.000004
00447	13309217	-9.794930	-0.286223	0.287954	-0.004625	0.001177	-0.002652
00448	13309267	-9.799964	-0.286816	0.294468	-0.004037	0.000129	-0.000227
00449	13309317	-9.814581	-0.276680	0.288021	-0.002156	0.002223	-0.001466
00450	13309367	-9.820187	-0.281240	0.279899	-0.004449	0.002760	-0.003090
00451	13309417	-9.807077	-0.273255	0.300039	-0.002379	0.000188	-0.001217
00452	13309467	-9.802153	-0.287200	0.302670	-0.004394	-0.001815	0.000085
00453	13309517	-9.812719	-0.276047	0.294517	-0.003409	0.000397	-0.000128
00454	13309567	-9.797472	-0.303429	0.310249	-0.002257	0.000255	-0.001380
00455	13309617	-9.796941	-0.292067	0.278338	-0.002995	0.003307	-0.002839
00456	13309667	-9.792135	-0.295869	0.318166	-0.004010	0.001323	-0.000861
00457	13309717	-9.800849	-0.272894	0.293209	-0.003800	0.001582	-0.001660
00458	13309767	-9.778543	-0.288364	0.299268	-0.005887	0.004803	-0.002278
00459	13309817	-9.799863	-0.296315	0.296377	-0.003413	0.000460	-0.001282
00460	13309867	-9.799172	-0.301419	0.312212	-0.007699	0.001282	-0.002733
00461	13309917	-9.817614	-0.285869	0.297173	-0.004004	0.002067	0.000470
00462	13309967	-9.808512	-0.287286	0.292127	-0.002868	0.000770	0.003920
00463	13310017	-9.815002	-0.276264	0.278454	-0.006627	0.001024	0.002264
00464	13310067	-9.803818	-0.298742	0.286750	-0.001709	0.003002	-0.003989
00465	13310117	-9.793835	-0.284957	0.300947	-0.003360	-0.000180	0.000198
00466	13310167	-9.800589	-0.262664	0.309052	-0.004724	0.002405	-0.002156
00467	13310217	-9.803683	-0.276967	0.298019	-0.004205	0.003387	0.000570
00468	13310267	-9.799216	-0.294631	0.306288	-0.003374	-0.000963	-0.001826
00469	13310317	-9.803452	-0.275722	0.298053	-0.001942	0.001422	-0.000851
00470	13310367	-9.807997	-0.296082	0.302330	-0.003278	0.005335	-0.001373
00471	13310417	-9.805186	-0.278917	0.314679	-0.002871	-0.001824	-0.001960
00472	13310467	-9.824016	-0.273804	0.306302	-0.004374	0.000507	-0.002166
00473	13310517	-9.802665	-0.293411	0.282469	-0.004575	0.001763	-0.001872
00474	13310567	-9.795936	-0.296316	0.278093	0.001247	0.003570	-0.003643
00475	13310617	-9.792503	-0.296148	0.300376	-0.000641	0.002699	-0.003002
00476	13310667	-9.796336	-0.291534	0.295396	-0.005551	0.001167	-0.000720
00477	13310717	-9.803293	-0.279782	0.278378	-0.004264	0.002023	-0.001422
00478	13310767	-9.802746	-0.279482	0.305957	-0.005392	0.000168	-0.001589
00479	13310817	-9.817712	-0.276894	0.293975	-0.004661	0.002372	-0.002667
00480	13310867	-9.788661	-0.293304	0.291312	-0.006894	0.001204	-0.001130
00481	13310917	-9.811938	-0.282798	0.297392	-0.005676	0.000866	-0.004021
00482	13310967	-9.806904	-0.280277	0.287017	-0.003089	0.002076	-0.002900
00483	13311017	-9.819390	-0.272980	0.289303	-0.004323	-0.000106	-0.001048
00484	13311067	-9.801388	-0.290889	0.302608	-0.006136	0.001038	0.005180
00485	13311117	-9.798431	-0.278533	0.298927	-0.003716	0.002578	-0.005621
00486	13311167	-9.803314	-0.288898	0.301947	-0.004683	-0.001183	-0.002236
00487	13311217	-9.796793	-0.290619	0.290817	-0.003325	0.001525	-0.002007
00488	13311267	-9.817246	-0.271241	0.284478	-0.005632	0.000711	-0.001230
00489	13311317	-9.805718	-0.288149	0.303424	-0.006236	-0.001328	0.000811
00490	13311367	-9.811029	-0.267740	0.313958	-0.003361	0.000946	0.000299
00491	13311417	-9.803427	-0.279152	0.300572	-0.003904	-0.002491	-0.002088
00492	13311467	-9.803641	-0.282398	0.303069	-0.004997	0.002246	0.001626
00493	13311517	-9.791168	-0.292945	0.310035	-0.005035	-0.001995	-0.001381
00494	13311567	-9.805732	-0.269228	0.267695	-0.003674	-0.000644	-0.002494
00495	13311617	-9.805902	-0.299936	0.279853	-0.000446	0.000612	0.000353
00496	13311667	-9.781963	-0.299289	0.298259	-0.001775	-0.001095	-0.002795
00497	13311717	-9.809570	-0.280272	0.295243	-0.004708	0.000958	0.000175
00498	13311767	-9.809444	-0.296672	0.307633	-0.003165	0.003789	-0.002056
00499	13311817	-9.786098	-0.292547	0.297080	-0.005794	0.000069	0.002641
00500	13311867	-9.787633	-0.298184	0.287529	-0.004598	-0.000593	-0.000759
00501	13311917	-9.812820	-0.281720	0.323277	-0.004674	0.001859	-0.001675
00502	13311967	-9.793808	-0.285312	0.297313	-0.007017	0.000174	0.001554
00503	13312017	-9.815282	-0.271920	0.315388	-0.004359	0.001026	-0.000783
00504	13312067	-9.791087	-0.296637	0.304758	-0.003259	0.000428	-0.001884
00505	13312117	-9.803727	-0.281305	0.275726	-0.000666	0.001775	0.001610
00506	13312167	-9.795394	-0.291089	0.295255	-0.005588	0.005584	-0.001913
00507	13312217	-9.815460	-0.276205	0.313686	-0.003703	0.001490	0.000594
00508	13312267	-9.814270	-0.282986	0.289191	-0.002936	0.003203	-0.006352
00509	13312317	-9.816363	-0.289200	0.295014	-0.001324	0.001342	-0.000278
00510	13312367	-9.789428	-0.287596	0.286684	-0.002491	0.002538	-0.002387
00511	13312417	-9.806752	-0.296680	0.295731	-0.002320	0.001058	-0.002649
00512	13312467	-9.808808	-0.283377	0.293331	-0.005046	-0.000536	-0.000665
00513	13312517	-9.806813	-0.277469	0.305531	-0.001845	0.001159	-0.004285
00514	13312567	-9.818804	-0.276872	0.279067	-0.002591	-0.001529	-0.002177
00515	13312617	-9.816217	-0.280816	0.290739	-0.003652	-0.000292	-0.001530
00516	13312667	-9.792056	-0.274085	0.299139	-0.005502	0.002644	-0.003915
00517	13312717	-9.808301	-0.286658	0.294750	-0.004758	0.001535	-0.000684
00518	13312767	-9.804501	-0.287684	0.298580	-0.005821	-0.001455	-0.000922
00519	13312817	-9.774182	-0.298840	0.307956	-0.004965	0.002851	-0.002569
00520	13312867	-9.806321	-0.286782	0.282485	-0.006210	0.000663	-0.002934
00521	13312917	-9.795670	-0.285845	0.291270	-0.001705	0.004036	-0.002608
00522	13312967	-9.793658	-0.291124	0.284364	-0.002591	0.001833	0.000077
00523	13313017	-9.807177	-0.264497	0.298544	-0.004769	0.001693	-0.002960
00524	13313067	-9.795281	-0.285533	0.304799	-0.004393	-0.000273	-0.002909
00525	13313117	-9.801996	-0.275147	0.291606	-0.003102	0.000792	0.000013
00526	13313167	-9.794600	-0.289750	0.319595	-0.004137	0.002222	0.000377
00527	13313217	-9.808687	-0.302115	0.310315	-0.005259	0.000073	-0.000085
00528	13313267	-9.798059	-0.291306	0.304183	-0.004118	-0.003015	-0.003947
00529	13313317	-9.810819	-0.278509	0.299808	-0.002894	-0.000889	-0.001152
00530	13313367	-9.800586	-0.294924	0.295669	-0.004787	0.002439	-0.000743
00531	13313417	-9.800232	-0.288156	0.301631	-0.002073	0.000355	-0.002690
00532	13313467	-9.799342	-0.283346	0.302636	-0.001692	-0.000184	0.001186
00533	13313517	-9.797896	-0.281789	0.296638	-0.002973	-0.000175	-0.000252
00534	13313567	-9.810562	-0.276963	0.293265	-0.005561	0.002650	-0.000389
00535	13313617	-9.806030	-0.279076	0.297643	-0.008713	-0.000925	-0.000688
00536	13313667	-9.793329	-0.280788	0.326076	-0.006200	-0.000456	0.000072
00537	13313717	-9.790848	-0.294695	0.301121	-0.004992	0.001654	-0.002577
00538	13313767	-9.802458	-0.277109	0.293881	-0.003974	0.006492	0.001393
00539	13313817	-9.813059	-0.293114	0.306436	-0.006967	0.003527	-0.002301
00540	13313867	-9.807064	-0.272546	0.297036	-0.006116	0.003932	-0.001854
00541	13313917	-9.810700	-0.288767	0.301820	-0.005625	0.006779	-0.002161
00542	13313967	-9.804438	-0.296210	0.304965	-0.003359	0.003017	0.001530
00543	13314017	-9.820719	-0.278038	0.320910	-0.005725	0.001612	-0.002029
00544	13314067	-9.812897	-0.261534	0.294287	-0.003252	0.000630	0.002734
00545	13314117	-9.804789	-0.267158	0.304568	-0.003567	0.000101	-0.001307
00546	13314167	-9.812973	-0.276391	0.297705	-0.003335	-0.001189	-0.001438
00547	13314217	-9.803029	-0.283113	0.282026	-0.003441	-0.000640	-0.000030
00548	13314267	-9.810339	-0.295683	0.295536	-0.004312	-0.001487	0.001698
00549	13314317	-9.799488	-0.291057	0.303805	-0.005409	0.000777	-0.002164
00550	13314367	-9.817753	-0.269123	0.285922	-0.001903	0.002291	-0.001652
00551	13314417	-9.814687	-0.290069	0.293803	-0.002629	-0.000008	-0.000218
00552	13314467	-9.816857	-0.288213	0.295188	-0.005397	0.002819	0.000769
00553	13314517	-9.805363	-0.297523	0.303334	-0.002012	0.001513	-0.002904
00554	13314567	-9.805848	-0.295026	0.299753	-0.005105	0.002272	-0.001192
00555	13314617	-9.824373	-0.271374	0.283326	-0.001506	-0.000345	-0.001182
00556	13314667	-9.793275	-0.290439	0.298580	-0.007190	-0.002807	-0.002754
00557	13314717	-9.817643	-0.295565	0.282055	-0.002150	0.001069	0.000779
00558	13314767	-9.801423	-0.285971	0.297392	-0.004265	-0.001076	-0.002240
00559	13314817	-9.798789	-0.293686	0.311731	-0.004213	-0.000554	0.000770
00560	13314867	-9.800442	-0.295801	0.313435	-0.006380	0.000479	0.003094
00561	13314917	-9.801700	-0.304062	0.302355	-0.007270	0.002041	-0.000069
00562	13314967	-9.790627	-0.280100	0.312411	-0.003642	-0.001512	0.000256
00563	13315017	-9.806553	-0.278964	0.303828	-0.007731	-0.000516	-0.000048
00564	13315067	-9.794002	-0.301125	0.283639	-0.005104	0.001076	-0.002293
00565	13315117	-9.803929	-0.290881	0.288226	-0.004135	0.002833	-0.002860
00566	13315167	-9.784679	-0.273212	0.298195	-0.005256	0.001809	-0.003989
00567	13315217	-9.788314	-0.291961	0.307755	-0.004280	0.003408	-0.002793
00568	13315267	-9.790478	-0.294407	0.316454	-0.003899	0.000484	-0.000824
00569	13315317	-9.806695	-0.285307	0.302428	-0.005896	0.001229	0.001142
00570	13315367	-9.808262	-0.289989	0.294256	-0.003557	0.001977	-0.001165
00571	13315417	-9.821760	-0.282239	0.304515	-0.003771	0.004916	0.000231
00572	13315467	-9.808140	-0.282475	0.298313	-0.004064	0.002772	-0.001612
00573	13315517	-9.817872	-0.282997	0.294635	-0.000614	-0.002073	0.000213
00574	13315567	-9.803552	-0.289278	0.303333	-0.009708	0.001648	0.003272
00575	13315617	-9.786853	-0.288871	0.296586	0.001821	0.000746	-0.001448
00576	13315667	-9.792443	-0.289207	0.316683	-0.005414	0.001139	0.000723
00577	13315717	-9.812618	-0.274934	0.314437	-0.004964	0.001144	-0.000139
00578	13315767	-9.796951	-0.286239	0.307089	-0.003414	0.002722	0.000089
00579	13315817	-9.817571	-0.278315	0.313744	-0.001650	0.000232	-0.001434
00580	13315867	-9.805735	-0.289037	0.308823	-0.001213	0.002597	-0.001777
00581	13315917	-9.792768	-0.295385	0.303763	-0.005083	0.001791	0.000408
00582	13315967	-9.807846	-0.267794	0.298740	-0.003992	0.004610	-0.001826
00583	13316017	-9.806368	-0.292944	0.303079	-0.005316	0.003143	-0.000066
00584	13316067	-9.799297	-0.303996	0.297345	-0.004640	0.000597	-0.002071
00585	13316117	-9.805986	-0.300209	0.294999	-0.000761	0.000379	-0.001570
00586	13316167	-9.814527	-0.291047	0.308874	-0.002953	0.004150	-0.000323
00587	13316217	-9.812575	-0.288432	0.295219	-0.002234	0.001480	-0.001875
00588	13316267	-9.806007	-0.283185	0.302407	-0.005373	0.001913	0.000761
00589	13316317	-9.789733	-0.292545	0.307834	-0.004119	-0.000485	0.000068
00590	13316367	-9.809908	-0.293265	0.298378	-0.004528	0.000080	-0.003420
00591	13316417	-9.809804	-0.297377	0.289658	-0.004619	0.002082	-0.001965
00592	13316467	-9.800759	-0.280443	0.295673	-0.001325	0.001307	0.000202
00593	13316517	-9.788464	-0.300669	0.310919	-0.004413	0.000738	-0.000887
00594	13316567	-9.816114	-0.290613	0.294752	-0.003518	0.001782	-0.000432
00595	13316617	-9.790358	-0.290859	0.289810	-0.005713	0.002621	0.000732
00596	13316667	-9.814810	-0.280835	0.296264	-0.002357	-0.000683	-0.000416
00597	13316717	-9.802938	-0.298525	0.298381	-0.006793	-0.000952	-0.000214
00598	13316767	-9.806025	-0.279113	0.296705	-0.008422	-0.000953	0.000559
00599	13316817	-9.800545	-0.282451	0.302037	-0.004937	0.003143	-0.001127
00600	13316867	-9.788919	-0.281924	0.308093	-0.004885	-0.001668	-0.001315
00601	13316917	-9.788474	-0.299038	0.309785	-0.006776	-0.000504	-0.000790
00602	13316967	-9.806648	-0.309557	0.304300	-0.008377	0.002829	0.000421
00603	13317017	-9.774785	-0.303962	0.301292	-0.005869	0.001159	-0.001167
00604	13317067	-9.812671	-0.303548	0.303435	-0.003768	-0.001778	-0.003847
00605	13317117	-9.795575	-0.293160	0.290874	-0.001760	0.000586	-0.000954
00606	13317167	-9.809982	-0.291834	0.307175	-0.001249	0.001954	0.000811
00607	13317217	-9.781809	-0.306895	0.287408	-0.005281	-0.001022	0.000580
00608	13317267	-9.803885	-0.284732	0.309088	-0.000669	0.002871	0.000916
00609	13317317	-9.810885	-0.269428	0.292730	-0.002793	-0.004182	-0.002419
00610	13317367	-9.826413	-0.271237	0.304360	-0.002261	0.003415	-0.003082
00611	13317417	-9.794213	-0.287848	0.290754	-0.006115	0.002161	0.003197
00612	13317467	-9.776834	-0.303243	0.283585	-0.006293	0.000180	-0.001558
00613	13317517	-9.804078	-0.293949	0.280838	-0.003006	0.000728	0.000201
00614	13317567	-9.808393	-0.277123	0.290159	-0.004666	0.001665	-0.000269
00615	13317617	-9.805628	-0.279787	0.310733	0.000875	0.002538	-0.000537
00616	13317667	-9.798923	-0.281817	0.309144	-0.004218	-0.000396	-0.000314
00617	13317717	-9.798946	-0.271191	0.290862	-0.002672	0.000918	-0.004286
00618	13317767	-9.815956	-0.268150	0.300765	-0.004029	0.001740	-0.001489
00619	13317817	-9.788157	-0.295445	0.289794	-0.003577	0.004426	-0.002855
00620	13317867	-9.816148	-0.299260	0.280136	-0.005785	0.002415	-0.003659
00621	13317917	-9.797173	-0.304882	0.264955	-0.004165	0.001701	-0.002673
00622	13317967	-9.797969	-0.270232	0.284638	-0.006402	0.002022	-0.000359
00623	13318017	-9.804832	-0.283735	0.305191	-0.005215	0.002685	-0.001832
00624	13318067	-9.800329	-0.281538	0.304582	-0.001312	-0.000507	-0.002114
00625	13318117	-9.808832	-0.283771	0.297596	-0.003621	-0.000453	-0.004931
00626	13318167	-9.797845	-0.287398	0.300213	-0.006169	0.001408	-0.003180
00627	13318217	-9.819712	-0.289501	0.297033	-0.004809	-0.002147	-0.001634
00628	13318267	-9.814391	-0.278553	0.300019	-0.005812	0.002483	-0.001892
00629	13318317	-9.802913	-0.268686	0.310744	-0.003266	0.002750	-0.003728
00630	13318367	-9.831416	-0.268771	0.300110	-0.006410	0.002446	0.001120
00631	13318417	-9.802968	-0.287785	0.282719	-0.005263	0.001563	0.002585
00632	13318467	-9.800784	-0.290221	0.279804	-0.004737	0.002757	-0.002506
00633	13318517	-9.808566	-0.284751	0.295566	-0.002172	-0.001159	0.002018
00634	13318567	-9.801201	-0.302535	0.295974	-0.001287	-0.000215	-0.001728
00635	13318617	-9.785588	-0.297701	0.302061	-0.003072	0.000624	-0.002623
00636	13318667	-9.818617	-0.291966	0.278310	-0.002643	-0.000588	0.001349
00637	13318717	-9.817548	-0.282199	0.317804	-0.005712	0.001421	-0.000359
00638	13318767	-9.812377	-0.270987	0.306498	-0.003240	0.002439	0.002230
00639	13318817	-9.820353	-0.273503	0.290185	-0.006907	0.001591	-0.002185
00640	13318867	-9.806285	-0.280729	0.302904	-0.005346	0.001680	-0.003665
00641	13318917	-9.822074	-0.273464	0.299585	-0.004924	0.002758	-0.001283
00642	13318967	-9.792878	-0.303749	0.300453	-0.002825	-0.000215	-0.001983
00643	13319017	-9.827391	-0.286078	0.298931	-0.005671	-0.000032	-0.002104
00644	13319067	-9.811403	-0.291356	0.303536	-0.005000	0.003175	-0.001512
00645	13319117	-9.796773	-0.298291	0.302608	-0.005164	0.000303	0.000104
00646	13319167	-9.799910	-0.270396	0.290902	-0.004058	-0.000359	-0.000251
00647	13319217	-9.781562	-0.309146	0.291668	-0.003798	0.004452	-0.002312
00648	13319267	-9.813689	-0.271859	0.289532	-0.008183	-0.000924	-0.005495
00649	13319317	-9.794524	-0.287232	0.302138	-0.005590	-0.001442	0.002823
00650	13319367	-9.800011	-0.284608	0.298306	-0.001538	-0.000512	-0.004134
00651	13319417	-9.796669	-0.283513	0.294757	0.000002	-0.001482	-0.001711
00652	13319467	-9.805543	-0.291173	0.280349	-0.001056	0.000760	-0.000542
00653	13319517	-9.813825	-0.290523	0.309610	-0.002488	0.001442	-0.001492
00654	13319567	-9.803842	-0.273042	0.277270	-0.004382	-0.001299	-0.000609
00655	13319617	-9.794076	-0.278833	0.289150	-0.003857	0.001355	0.000847
00656	13319667	-9.789901	-0.292380	0.296304	-0.001747	0.001653	0.002226
00657	13319717	-9.801565	-0.274431	0.297579	-0.006827	0.000747	-0.005297
00658	13319767	-9.808726	-0.277181	0.307016	-0.004278	-0.000593	-0.001531
00659	13319817	-9.825698	-0.286398	0.295435	-0.003057	0.003603	0.000319
00660	13319867	-9.802098	-0.291485	0.313836	0.000501	0.000982	-0.001159
00661	13319917	-9.806772	-0.306034	0.300877	-0.004277	0.000980	-0.006657
00662	13319967	-9.803118	-0.294220	0.302333	-0.002743	-0.000662	-0.000835
00663	13320017	-9.796247	-0.294010	0.306766	-0.006391	0.002601	-0.000069
00664	13320067	-9.801707	-0.287515	0.291765	-0.004031	-0.001366	-0.002825
00665	13320117	-9.808256	-0.291446	0.319090	-0.005839	0.001353	0.000817
00666	13320167	-9.808317	-0.286904	0.279746	-0.002920	0.000977	-0.002398
00667	13320217	-9.813190	-0.282025	0.287988	-0.007012	0.000042	-0.000085
00668	13320267	-9.813528	-0.282172	0.305439	-0.005070	0.001006	-0.003736
00669	13320317	-9.797090	-0.292369	0.286002	-0.005141	0.001163	-0.003414
00670	13320367	-9.792101	-0.283535	0.308955	-0.007264	0.000846	-0.000527
00671	13320417	-9.799902	-0.298285	0.289778	-0.004116	0.001384	-0.000407
00672	13320467	-9.809163	-0.281894	0.291120	-0.000883	-0.001024	-0.004333
00673	13320517	-9.805456	-0.276018	0.296436	-0.004510	0.004759	-0.003942
00674	13320567	-9.785523	-0.306160	0.291481	-0.002544	-0.001688	0.000598
00675	13320617	-9.810838	-0.284016	0.296813	-0.003333	0.002138	0.000720
00676	13320667	-9.792391	-0.292167	0.295820	-0.007927	-0.000757	-0.003065
00677	13320717	-9.792359	-0.295441	0.297917	-0.002956	0.001310	0.000712
00678	13320767	-9.799758	-0.277357	0.300850	-0.002035	0.001353	-0.001822
00679	13320817	-9.811139	-0.287878	0.277123	-0.002753	0.003827	-0.001934
00680	13320867	-9.801908	-0.291758	0.293411	-0.001364	0.001265	-0.002430
00681	13320917	-9.800566	-0.265937	0.293782	-0.005107	0.004327	-0.004745
00682	13320967	-9.795518	-0.296387	0.309427	-0.005255	0.002137	-0.001584
00683	13321017	-9.785903	-0.301224	0.305604	-0.003038	-0.000408	-0.002053
00684	13321067	-9.807162	-0.298223	0.309447	-0.004653	0.003337	-0.001162
00685	13321117	-9.806080	-0.283511	0.296522	-0.006127	0.001346	-0.001329
00686	13321167	-9.788887	-0.284122	0.289767	-0.004104	-0.001037	-0.000774
00687	13321217	-9.793562	-0.291868	0.291974	-0.003736	-0.000616	-0.002180
00688	13321267	-9.795912	-0.291362	0.286002	-0.001813	0.000319	-0.002790
00689	13321317	-9.792808	-0.275059	0.290574	-0.003659	-0.001263	-0.004330
00690	13321367	-9.792499	-0.298871	0.288239	-0.004975	0.005565	-0.000636
00691	13321417	-9.796979	-0.273625	0.307406	-0.003901	-0.002395	-0.000970
00692	13321467	-9.785721	-0.293971	0.299105	-0.006742	0.001527	-0.001809
00693	13321517	-9.813890	-0.278752	0.278870	-0.006581	-0.000367	0.001931
00694	13321567	-9.819195	-0.280533	0.292978	-0.004773	0.004081	-0.001188
00695	13321617	-9.809708	-0.278511	0.296074	-0.008164	0.000215	0.000980
00696	13321667	-9.808265	-0.290115	0.279987	-0.001391	0.002570	0.002123
00697	13321717	-9.780354	-0.303388	0.297567	-0.004149	0.003379	-0.002513
00698	13321767	-9.818406	-0.286746	0.294632	-0.003892	0.004383	-0.003497
00699	13321817	-9.798470	-0.282785	0.296774	-0.004669	0.001528	-0.003191
00700	13321867	-9.801516	-0.283903	0.290791	-0.004127	0.001635	-0.003222
00701	13321917	-9.814033	-0.275081	0.295704	0.000569	-0.000118	-0.001899
00702	13321967	-9.797641	-0.291040	0.295293	-0.007112	0.001906	-0.003311
00703	13322017	-9.794041	-0.295711	0.300394	-0.006913	-0.002212	0.000959
00704	13322067	-9.797455	-0.291047	0.303620	-0.006249	0.004351	0.000642
00705	13322117	-9.807500	-0.299960	0.290366	-0.004865	-0.000417	-0.004677
00706	13322167	-9.811234	-0.293886	0.304470	-0.004856	0.001726	0.000691
00707	13322217	-9.794775	-0.289734	0.291240	-0.002365	0.000703	-0.001182
00708	13322267	-9.814081	-0.281813	0.316704	-0.005469	0.001776	-0.002513
00709	13322317	-9.800545	-0.288932	0.298203	-0.002293	0.001445	-0.001049
00710	13322367	-9.823429	-0.288549	0.302373	-0.006180	0.001218	0.000853
00711	13322417	-9.807731	-0.276658	0.280965	-0.004292	0.003024	-0.002189
00712	13322467	-9.794971	-0.282233	0.308472	-0.007651	0.001699	-0.004501
00713	13322517	-9.800072	-0.280651	0.281097	-0.001879	0.003546	-0.003190
00714	13322567	-9.796741	-0.285431	0.293432	-0.003130	-0.002309	0.001499
00715	13322617	-9.794155	-0.300364	0.290776	-0.006393	0.000601	-0.000308
00716	13322667	-9.789119	-0.302832	0.289381	-0.002388	-0.001717	0.000183
00717	13322717	-9.805548	-0.266859	0.294668	-0.003010	0.001180	0.001131
00718	13322767	-9.814118	-0.283754	0.288965	-0.002280	-0.001268	-0.002926
00719	13322817	-9.800100	-0.294479	0.276898	-0.002868	-0.000396	0.002691
00720	13322867	-9.813949	-0.282488	0.296117	-0.008214	0.000466	-0.002869
00721	13322917	-9.817605	-0.272923	0.290640	-0.006989	0.000166	-0.002582
00722	13322967	-9.800298	-0.285020	0.289558	-0.003070	0.001691	-0.001239
00723	13323017	-9.798426	-0.284580	0.294811	-0.004160	0.003062	0.001368
00724	13323067	-9.815639	-0.282292	0.300733	-0.000260	-0.001229	-0.002158
00725	13323117	-9.799969	-0.279745	0.302270	-0.004586	0.001179	-0.000820
00726	13323167	-9.803006	-0.299662	0.295218	-0.003954	-0.001978	-0.003435
00727	13323217	-9.795647	-0.282880	0.302704	-0.002874	0.001431	-0.004348
00728	13323267	-9.813508	-0.267013	0.310108	-0.007261	-0.003420	-0.001383
00729	13323317	-9.791016	-0.287275	0.294301	-0.005058	0.000982	0.000138
00730	13323367	-9.809818	-0.288538	0.294935	-0.004635	0.000628	-0.001305
00731	13323417	-9.788160	-0.297575	0.316575	-0.003203	0.001045	-0.000060
00732	13323467	-9.787339	-0.303158	0.309218	-0.005433	0.000554	-0.000980
00733	13323517	-9.802686	-0.263655	0.285078	-0.005272	-0.001743	-0.003079
00734	13323567	-9.801642	-0.277437	0.298261	-0.002486	0.000174	-0.004998
00735	13323617	-9.814396	-0.282948	0.292772	-0.006683	0.001525	-0.003665
00736	13323667	-9.799049	-0.292616	0.295765	-0.006459	0.002957	0.000474
00737	13323717	-9.814409	-0.294716	0.280545	-0.002748	0.002959	0.001940
00738	13323767	-9.810920	-0.283436	0.309105	-0.000376	-0.000790	-0.004046
00739	13323817	-9.791303	-0.293056	0.276337	-0.005608	0.001967	-0.002673
00740	13323867	-9.783335	-0.283013	0.315802	-0.005316	0.003137	-0.000492
00741	13323917	-9.805542	-0.285643	0.291536	-0.005351	0.000904	-0.002839
00742	13323967	-9.787543	-0.302867	0.303993	-0.002943	-0.001509	-0.002412
00743	13324017	-9.799106	-0.289184	0.296104	-0.001785	0.006615	-0.003940
00744	13324067	-9.796866	-0.296177	0.296064	-0.003904	-0.000159	0.000036
00745	13324117	-9.813150	-0.263948	0.284383	-0.002196	0.000543	-0.000640
00746	13324167	-9.816566	-0.264171	0.298391	-0.003932	-0.003261	0.001045
00747	13324217	-9.786533	-0.300482	0.290459	-0.005104	0.001395	0.000560
00748	13324267	-9.807893	-0.294099	0.303521	-0.005739	0.001124	-0.001618
00749	13324317	-9.803977	-0.284856	0.305622	-0.005600	0.001804	-0.002898
00750	13324367	-9.804436	-0.287118	0.269000	-0.004306	0.000249	-0.000217
00751	13324417	-9.811426	-0.273356	0.292953	-0.001018	0.000662	-0.001055
00752	13324467	-9.805617	-0.295027	0.285160	-0.006840	-0.001705	-0.003778
00753	13324517	-9.800312	-0.283320	0.288818	-0.004293	0.003092	-0.000041
00754	13324567	-9.805843	-0.285409	0.302017	-0.003627	0.002592	0.002421
00755	13324617	-9.803144	-0.285810	0.289360	-0.001968	0.002089	-0.003771
00756	13324667	-9.803026	-0.272521	0.320765	-0.004636	-0.000376	-0.002946
00757	13324717	-9.807793	-0.281491	0.299918	-0.005274	0.001653	-0.000591
00758	13324767	-9.814315	-0.285691	0.324166	-0.000626	0.000315	-0.001158
00759	13324817	-9.801458	-0.294972	0.304467	-0.004803	-0.001214	-0.001155
00760	13324867	-9.825359	-0.288714	0.305274	-0.006537	-0.000051	-0.003739
00761	13324917	-9.796493	-0.313240	0.309277	-0.006559	-0.001048	0.001092
00762	13324967	-9.786904	-0.285937	0.281597	-0.003354	0.001585	-0.001657
00763	13325017	-9.814297	-0.275123	0.299702	-0.003678	0.001813	-0.000465
00764	13325067	-9.787573	-0.293147	0.289099	-0.007419	0.000514	-0.002612
00765	13325117	-9.801638	-0.300291	0.306231	-0.000033	0.004776	-0.002580
00766	13325167	-9.799835	-0.290694	0.302403	-0.004426	0.005214	-0.002979
00767	13325217	-9.789885	-0.301741	0.295678	-0.005882	0.003970	0.001439
00768	13325267	-9.806330	-0.286507	0.304938	-0.007214	0.001293	-0.000779
00769	13325317	-9.807837	-0.289918	0.325743	-0.007566	0.003484	-0.000735
00770	13325367	-9.796001	-0.297395	0.312216	-0.005671	0.005358	0.000582
00771	13325417	-9.808878	-0.285330	0.291305	-0.004651	0.000310	0.001227
00772	13325467	-9.798660	-0.309835	0.305465	-0.004137	-0.000939	0.000450
00773	13325517	-9.805379	-0.283368	0.299187	-0.004491	0.000147	-0.002338
00774	13325567	-9.798554	-0.274037	0.293229	-0.005359	-0.000907	-0.004230
00775	13325617	-9.813861	-0.267323	0.290146	-0.003348	-0.000566	0.001607
00776	13325667	-9.798784	-0.277844	0.300137	-0.003970	0.000731	-0.002045
00777	13325717	-9.787909	-0.278930	0.275378	-0.004245	0.001379	-0.001334
00778	13325767	-9.814126	-0.279099	0.280277	-0.001684	0.001522	-0.000156
00779	13325817	-9.799479	-0.279700	0.301036	-0.005796	0.001962	-0.001774
00780	13325867	-9.802920	-0.285222	0.290238	-0.001875	0.003685	0.001526
00781	13325917	-9.805326	-0.286321	0.296370	-0.000926	-0.001334	-0.000299
00782	13325967	-9.837390	-0.274192	0.296275	-0.005702	-0.002003	-0.001279
00783	13326017	-9.804111	-0.304076	0.289098	-0.003480	0.000450	-0.002272
00784	13326067	-9.816311	-0.272543	0.273832	-0.004107	0.002486	0.002360
00785	13326117	-9.802765	-0.283960	0.301562	-0.006548	0.000664	0.001361
00786	13326167	-9.800781	-0.297845	0.278059	-0.003749	0.002033	0.000530
00787	13326217	-9.814624	-0.286432	0.298388	-0.005864	-0.001745	0.001027
00788	13326267	-9.798284	-0.299677	0.301293	-0.006190	0.001246	-0.001745
00789	13326317	-9.788035	-0.297764	0.296710	-0.003631	-0.000868	-0.001382
00790	13326367	-9.798525	-0.294528	0.291801	-0.002936	-0.001600	-0.001387
00791	13326417	-9.803679	-0.282821	0.292084	-0.007828	-0.003983	-0.004397
00792	13326467	-9.792905	-0.291927	0.301949	-0.003593	0.003333	0.000721
00793	13326517	-9.795573	-0.284130	0.293831	-0.005270	0.000387	-0.003068
00794	13326567	-9.798347	-0.275224	0.300611	-0.007605	-0.000618	-0.001978
00795	13326617	-9.803048	-0.298190	0.298530	-0.003762	-0.001644	-0.000101
00796	13326667	-9.797688	-0.297514	0.316426	-0.004260	0.000959	-0.000247
00797	13326717	-9.811516	-0.304401	0.294212	-0.002768	-0.000723	-0.000709
00798	13326767	-9.791706	-0.292668	0.302505	-0.008183	-0.000598	-0.000725
00799	13326817	-9.802351	-0.295765	0.297491	-0.005002	0.001308	0.002608
00800	13326867	-9.773569	-0.301125	0.312725	-0.004223	-0.000366	-0.002407
00801	13326917	-9.801161	-0.275849	0.294678	-0.002360	-0.000687	-0.001254
00802	13326967	-9.803344	-0.286033	0.321746	-0.003338	0.000973	-0.002585
00803	13327017	-9.798376	-0.273775	0.302655	-0.003334	0.004269	0.000121
00804	13327067	-9.802393	-0.299344	0.309930	-0.008177	0.002471	-0.001768
00805	13327117	-9.806784	-0.287976	0.304663	-0.004601	0.003631	-0.002056
00806	13327167	-9.800928	-0.289960	0.285494	-0.001141	0.001401	-0.001436
00807	13327217	-9.805643	-0.272741	0.320733	-0.002681	0.001698	-0.000437
00808	13327267	-9.792349	-0.291873	0.288384	-0.003701	-0.000815	-0.004555
00809	13327317	-9.798227	-0.303518	0.299445	-0.001732	-0.001394	-0.004721
00810	13327367	-9.803951	-0.296939	0.287678	-0.007195	-0.000518	-0.003421
00811	13327417	-9.794853	-0.281136	0.287381	-0.003265	0.000682	-0.003714
00812	13327467	-9.802641	-0.279191	0.309488	-0.007296	0.000840	-0.002003
00813	13327517	-9.787299	-0.293461	0.284033	-0.005940	-0.000454	0.001673
00814	13327567	-9.800071	-0.288981	0.299792	-0.005240	0.004718	-0.001730
00815	13327617	-9.800351	-0.292193	0.274573	-0.006364	-0.002571	-0.002183
00816	13327667	-9.823105	-0.269437	0.287782	-0.005151	0.000616	-0.004121
00817	13327717	-9.808481	-0.284092	0.300380	-0.003673	0.000679	-0.000670
00818	13327767	-9.809853	-0.282552	0.288728	-0.004255	-0.000400	-0.002464
00819	13327817	-9.816229	-0.282210	0.279292	-0.001966	0.003357	-0.001230
00820	13327867	-9.802258	-0.287313	0.301869	-0.000741	-0.001876	0.001045
00821	13327917	-9.794918	-0.276625	0.288160	-0.002399	-0.001399	-0.001933
00822	13327967	-9.801434	-0.283994	0.316477	-0.004081	-0.001650	-0.001156
00823	13328017	-9.789758	-0.282439	0.273877	-0.004005	0.003294	0.001819
00824	13328067	-9.804252	-0.282758	0.308291	-0.004187	0.000668	-0.001211
00825	13328117	-9.812659	-0.280309	0.313770	-0.001018	0.002696	-0.000595
00826	13328167	-9.809101	-0.277390	0.311277	-0.000565	-0.001855	-0.003219
00827	13328217	-9.801596	-0.285288	0.306990	-0.004581	0.005183	-0.001343
00828	13328267	-9.800707	-0.275016	0.258640	-0.007042	0.000847	0.000019
00829	13328317	-9.804306	-0.299845	0.313346	-0.005523	0.001425	0.000174
00830	13328367	-9.797465	-0.295429	0.275876	-0.004666	0.002729	-0.000653
00831	13328417	-9.824683	-0.278121	0.330408	-0.002756	0.001924	-0.000818
00832	13328467	-9.776879	-0.292673	0.252699	-0.003312	0.003465	0.001074
00833	13328517	-9.806540	-0.286012	0.338910	-0.001725	0.001913	0.001485
00834	13328567	-9.814161	-0.296274	0.281686	-0.004733	0.004592	-0.004167
00835	13328617	-9.811963	-0.278171	0.313102	-0.000148	0.000319	-0.003657
00836	13328667	-9.804301	-0.288156	0.288349	-0.005634	0.003001	-0.001385
00837	13328717	-9.778873	-0.309220	0.262092	-0.002079	0.002805	-0.000182
00838	13328767	-9.795620	-0.276689	0.325032	-0.000859	0.000598	-0.001889
00839	13328817	-9.801651	-0.277018	0.298900	-0.004710	0.002215	0.000720
00840	13328867	-9.816671	-0.288633	0.326868	-0.001931	-0.000876	-0.002278
00841	13328917	-9.802062	-0.268275	0.270890	-0.007091	0.001689	0.001239
00842	13328967	-9.807377	-0.271800	0.291033	-0.004324	0.001119	0.000493
00843	13329017	-9.806492	-0.282476	0.284801	-0.004113	0.002411	-0.001841
00844	13329067	-9.814199	-0.291065	0.316795	-0.003298	-0.000256	-0.003264
00845	13329117	-9.812284	-0.283654	0.298926	-0.002959	0.003404	-0.001904
00846	13329167	-9.800550	-0.283283	0.288408	-0.005035	0.000235	0.000233
00847	13329217	-9.797834	-0.289042	0.284552	-0.001238	-0.000902	-0.004113
00848	13329267	-9.802450	-0.295827	0.312842	-0.005742	-0.000840	-0.001695
00849	13329317	-9.802697	-0.286071	0.294888	-0.006693	-0.000053	-0.000982
00850	13329367	-9.801219	-0.294953	0.303922	-0.005990	0.002124	-0.001070
00851	13329417	-9.803848	-0.281942	0.317586	-0.002549	0.001336	-0.002684
00852	13329467	-9.811436	-0.290149	0.290648	-0.005405	-0.002579	-0.001415
00853	13329517	-9.798344	-0.307726	0.288422	-0.005732	0.000001	-0.000153
00854	13329567	-9.808607	-0.271417	0.296113	-0.002392	0.000738	-0.000060
00855	13329617	-9.804085	-0.302466	0.282670	-0.003386	-0.000411	-0.000543
00856	13329667	-9.819822	-0.278930	0.314843	-0.003047	0.000148	0.000934
00857	13329717	-9.801931	-0.298636	0.311116	-0.003123	0.002498	-0.000306
00858	13329767	-9.799162	-0.297646	0.284845	-0.005276	-0.001314	0.000737
00859	13329817	-9.788646	-0.291980	0.306819	-0.003652	-0.000066	-0.000960
00860	13329867	-9.819118	-0.275846	0.300194	-0.006961	0.003523	-0.001218
00861	13329917	-9.804096	-0.280990	0.295499	-0.000886	-0.000732	-0.003275
00862	13329967	-9.807786	-0.280835	0.315284	-0.003489	0.002872	-0.003570
00863	13330017	-9.825221	-0.283886	0.329677	-0.007158	0.005777	-0.001365
00864	13330067	-9.795981	-0.283092	0.299268	-0.004210	0.000374	-0.001758
00865	13330117	-9.807605	-0.282090	0.287325	-0.005958	0.000922	-0.001583
00866	13330167	-9.811949	-0.290908	0.316055	-0.004626	0.002530	-0.000813
00867	13330217	-9.806951	-0.289482	0.274919	-0.001944	-0.001423	-0.000844
00868	13330267	-9.778152	-0.294201	0.324731	-0.005043	0.002423	-0.002964
00869	13330317	-9.784579	-0.279741	0.256238	0.001249	0.002531	-0.004261
00870	13330367	-9.800591	-0.284819	0.314574	-0.004963	-0.000158	-0.002367
00871	13330417	-9.821509	-0.292332	0.285920	-0.006872	0.002016	0.003294
00872	13330467	-9.828989	-0.278667	0.312581	-0.006159	0.002670	0.000221
00873	13330517	-9.784436	-0.289060	0.251731	-0.004741	0.001010	-0.000344
00874	13330567	-9.797794	-0.295055	0.306387	-0.005342	0.002906	-0.000330
00875	13330617	-9.794563	-0.297212	0.289139	-0.002311	0.001854	-0.004642
00876	13330667	-9.818071	-0.278399	0.317041	-0.007655	0.003315	-0.001088
00877	13330717	-9.786530	-0.282268	0.269740	-0.002656	-0.002246	-0.000526
00878	13330767	-9.806418	-0.288400	0.302194	-0.002734	-0.000562	0.000446
00879	13330817	-9.802637	-0.278988	0.287063	-0.004154	-0.000566	-0.003813
00880	13330867	-9.789601	-0.290749	0.321948	0.000020	0.001126	-0.002596
00881	13330917	-9.804080	-0.276610	0.285109	-0.000319	0.000633	-0.003365
00882	13330967	-9.811918	-0.281952	0.292877	-0.006701	0.000302	-0.000913
00883	13331017	-9.808837	-0.282956	0.294887	-0.002690	0.003914	-0.002445
00884	13331067	-9.785905	-0.296428	0.312824	-0.003717	0.000832	-0.002591
00885	13331117	-9.808690	-0.290091	0.287124	-0.002106	-0.000332	0.000161
00886	13331167	-9.800148	-0.295469	0.304070	-0.002267	-0.000137	0.001761
00887	13331217	-9.797636	-0.286939	0.303786	-0.003567	0.003519	-0.000234
00888	13331267	-9.793377	-0.302011	0.299771	-0.004968	0.000039	-0.000603
00889	13331317	-9.809616	-0.283098	0.307256	-0.003850	-0.000843	-0.000835
00890	13331367	-9.795671	-0.285085	0.289922	-0.003292	0.001841	-0.001526
00891	13331417	-9.807711	-0.276264	0.293054	-0.004326	0.001016	-0.002328
00892	13331467	-9.803660	-0.281256	0.303121	-0.005133	0.000460	0.000683
00893	13331517	-9.798687	-0.276226	0.298004	-0.003137	0.000877	-0.001694
00894	13331567	-9.814591	-0.274301	0.285171	-0.004995	0.002105	-0.001325
00895	13331617	-9.787413	-0.303882	0.303122	-0.000976	-0.001763	0.000019
00896	13331667	-9.797237	-0.288949	0.281504	-0.005562	0.000742	-0.000598
00897	13331717	-9.788791	-0.311714	0.309321	-0.004858	-0.001842	-0.005583
00898	13331767	-9.810603	-0.293089	0.294023	-0.006387	0.000499	-0.001299
00899	13331817	-9.803020	-0.274085	0.300686	-0.007034	-0.000054	0.002670
00900	13331867	-9.800713	-0.284514	0.295278	-0.002717	-0.001442	-0.002314
00901	13331917	-9.797527	-0.286372	0.283388	-0.006244	0.002049	-0.000747
00902	13331967	-9.796125	-0.278019	0.310072	-0.002128	0.000249	-0.001152
00903	13332017	-9.811833	-0.291735	0.298650	-0.001300	-0.001412	0.000505
00904	13332067	-9.809275	-0.283498	0.291168	-0.005789	-0.000003	0.001356
00905	13332117	-9.803373	-0.301663	0.298090	-0.003500	0.001030	-0.003003
00906	13332167	-9.789227	-0.285672	0.288664	-0.001752	0.000450	-0.001924
00907	13332217	-9.796065	-0.280545	0.305905	-0.003221	0.001391	-0.001886
00908	13332267	-9.784976	-0.296189	0.276837	-0.005195	0.003998	-0.003272
00909	13332317	-9.787489	-0.277494	0.299969	-0.004049	-0.000559	-0.000256
00910	13332367	-9.797223	-0.293859	0.289439	-0.000724	0.001474	-0.001308
00911	13332417	-9.804377	-0.283305	0.307656	-0.002094	0.002415	-0.000661
00912	13332467	-9.791270	-0.290934	0.282871	-0.007306	0.000992	-0.003763
00913	13332517	-9.796648	-0.280048	0.283652	-0.004251	0.001367	-0.004856
00914	13332567	-9.815896	-0.277831	0.311767	0.000025	0.002164	-0.000570
00915	13332617	-9.802346	-0.290502	0.301968	-0.005317	-0.001030	-0.000317
00916	13332667	-9.801326	-0.281479	0.311491	-0.005201	0.000386	-0.001401
00917	13332717	-9.790841	-0.281163	0.270781	-0.005159	-0.001162	-0.002661
00918	13332767	-9.819928	-0.261542	0.314940	-0.003647	0.000031	0.000007
00919	13332817	-9.816847	-0.290652	0.298396	-0.006060	0.002411	-0.001032
00920	13332867	-9.838936	-0.275077	0.334693	-0.005136	0.001657	0.002135
00921	13332917	-9.808732	-0.284610	0.282505	-0.002702	0.000176	-0.000287
00922	13332967	-9.822609	-0.292270	0.309477	-0.002521	-0.000235	0.000962
00923	13333017	-9.806375	-0.291525	0.300457	-0.006272	-0.000246	-0.002559
00924	13333067	-9.830994	-0.269686	0.310653	-0.003751	0.002158	-0.000878
00925	13333117	-9.811204	-0.281969	0.292085	-0.005941	0.004769	-0.000605
00926	13333167	-9.796932	-0.296146	0.285405	-0.002965	-0.000571	0.000187
00927	13333217	-9.814258	-0.266497	0.331923	-0.001094	0.000878	-0.003236
00928	13333267	-9.790150	-0.311017	0.296996	-0.002722	0.003785	-0.003473
00929	13333317	-9.791521	-0.290483	0.323934	-0.003884	-0.001651	0.000472
00930	13333367	-9.801345	-0.285522	0.284578	-0.006749	0.003913	-0.000226
00931	13333417	-9.812513	-0.277673	0.302712	-0.004117	-0.000565	-0.003298
00932	13333467	-9.810994	-0.290080	0.313892	-0.004185	0.002997	0.000887
00933	13333517	-9.810230	-0.293930	0.314085	-0.006357	0.004759	-0.000702
00934	13333567	-9.815928	-0.273224	0.306712	-0.005690	0.000573	-0.001237
00935	13333617	-9.800468	-0.279124	0.284229	-0.003190	-0.001577	-0.001002
00936	13333667	-9.799785	-0.278936	0.288517	0.001136	-0.000756	-0.001203
00937	13333717	-9.811428	-0.280549	0.325955	-0.006080	0.001185	0.000436
00938	13333767	-9.806672	-0.298465	0.325205	-0.005699	0.001325	0.001204
00939	13333817	-9.805737	-0.281434	0.293082	0.000207	-0.000707	-0.001387
00940	13333867	-9.793394	-0.283408	0.304094	-0.004502	-0.002572	-0.001709
00941	13333917	-9.795246	-0.275865	0.280019	-0.005587	0.001447	-0.000592
00942	13333967	-9.809473	-0.287177	0.293341	-0.004315	0.000533	-0.002518
00943	13334017	-9.809479	-0.310771	0.302935	-0.004745	0.000305	0.000971
00944	13334067	-9.800809	-0.293415	0.290305	-0.008159	-0.004152	-0.000586
00945	13334117	-9.801827	-0.270836	0.294478	-0.002808	-0.001077	0.004292
00946	13334167	-9.792667	-0.286310	0.269066	-0.002196	0.000511	0.000422
00947	13334217	-9.819532	-0.272383	0.310840	-0.003509	0.001711	0.000238
00948	13334267	-9.813937	-0.277684	0.301700	-0.003755	0.002188	-0.002389
00949	13334317	-9.788420	-0.284728	0.310284	-0.004209	-0.000199	0.002408
00950	13334367	-9.793175	-0.271539	0.282703	-0.002272	0.001090	0.000677
00951	13334417	-9.790695	-0.286743	0.297540	-0.002329	0.000633	-0.000641
00952	13334467	-9.816608	-0.274883	0.304405	-0.001597	-0.000292	-0.002088
00953	13334517	-9.800921	-0.285422	0.292774	-0.004711	0.000075	-0.002173
00954	13334567	-9.806108	-0.290946	0.295669	-0.006130	0.002471	-0.001547
00955	13334617	-9.783914	-0.287900	0.281916	-0.002477	0.001145	-0.001054
00956	13334667	-9.805861	-0.297212	0.306736	-0.004575	0.000020	0.001512
00957	13334717	-9.814038	-0.288067	0.300780	-0.005889	0.000793	-0.002550
00958	13334767	-9.821402	-0.299152	0.319987	-0.004542	0.000690	-0.000952
00959	13334817	-9.790331	-0.286369	0.276015	-0.003443	-0.001478	0.001146
00960	13334867	-9.798266	-0.291851	0.299453	-0.006011	0.000794	-0.001045
00961	13334917	-9.798820	-0.292762	0.314332	-0.008402	0.000660	-0.000525
00962	13334967	-9.789148	-0.294982	0.294799	-0.004026	0.004030	0.001564
00963	13335017	-9.799121	-0.285929	0.310749	-0.003795	0.001249	-0.003000
00964	13335067	-9.785331	-0.274526	0.290345	-0.006431	-0.001280	-0.002273
00965	13335117	-9.799963	-0.302921	0.289195	-0.005034	0.000101	-0.001949
00966	13335167	-9.784531	-0.287290	0.301990	-0.006050	0.001788	-0.004598
00967	13335217	-9.794323	-0.295852	0.286970	-0.003099	0.005016	0.001373
00968	13335267	-9.810679	-0.284249	0.288945	-0.002700	0.002339	-0.001236
00969	13335317	-9.805958	-0.279169	0.285690	-0.005073	0.000324	-0.002424
00970	13335367	-9.799721	-0.307024	0.296105	-0.007222	0.001810	-0.000265
00971	13335417	-9.810979	-0.303938	0.300784	-0.003538	0.001388	-0.000693
00972	13335467	-9.790317	-0.296340	0.293869	-0.001662	0.003075	0.001647
00973	13335517	-9.794274	-0.291559	0.270233	-0.001878	0.000451	-0.000546
00974	13335567	-9.809980	-0.284214	0.291905	-0.003689	0.001730	-0.004951
00975	13335617	-9.809634	-0.280714	0.305483	-0.002387	0.003573	-0.002095
00976	13335667	-9.794639	-0.275768	0.297297	-0.000557	0.000916	-0.005420
00977	13335717	-9.818487	-0.271303	0.293148	-0.001621	-0.000283	0.002018
00978	13335767	-9.790155	-0.298497	0.311894	-0.006121	0.002442	0.001369
00979	13335817	-9.806918	-0.300183	0.290902	-0.005226	0.000899	-0.003096
00980	13335867	-9.808848	-0.306367	0.307236	-0.006929	-0.000516	-0.000664
00981	13335917	-9.815566	-0.295031	0.292637	-0.006514	0.000594	0.000303
00982	13335967	-9.820079	-0.279674	0.298868	-0.007051	0.000831	-0.005554
00983	13336017	-9.815227	-0.289583	0.304019	-0.003842	-0.004269	-0.001715
00984	13336067	-9.804282	-0.283767	0.292855	-0.007938	-0.001109	-0.000022
00985	13336117	-9.778052	-0.295937	0.312563	-0.003602	0.001153	-0.004222
00986	13336167	-9.794768	-0.292627	0.274384	-0.005311	-0.003390	-0.000844
00987	13336217	-9.788840	-0.295165	0.283607	-0.004488	0.001916	-0.002518
00988	13336267	-9.792387	-0.315884	0.321783	-0.003105	-0.001288	-0.002345
00989	13336317	-9.819884	-0.294066	0.296055	-0.002540	-0.000088	-0.004451
00990	13336367	-9.804605	-0.285958	0.312431	-0.004490	0.001211	0.000045
00991	13336417	-9.817286	-0.285495	0.281409	-0.007316	0.001445	-0.003149
00992	13336467	-9.813433	-0.275582	0.293437	-0.002053	-0.003135	-0.000465
00993	13336517	-9.799645	-0.303511	0.315837	-0.004524	0.000244	-0.000696
00994	13336567	-9.806346	-0.282158	0.276941	-0.005907	0.002474	-0.002446
00995	13336617	-9.801638	-0.274309	0.309778	-0.004712	0.003271	-0.001962
00996	13336667	-9.783059	-0.276964	0.314616	-0.003032	0.005081	0.001116
00997	13336717	-9.795473	-0.299556	0.286764	-0.001989	0.002863	-0.003129
00998	13336767	-9.790163	-0.296136	0.307367	-0.002967	0.000525	-0.001442
00999	13336817	-9.793094	-0.290558	0.307078	-0.007027	0.003453	-0.003238
01000	13336867	-9.797833	-0.286114	0.294716	-0.006906	-0.000255	-0.000568
01001	13336917	-9.814635	-0.268141	0.280918	-0.001270	-0.000445	-0.001128
01002	13336967	-9.821883	-0.284899	0.291334	-0.005125	0.004237	0.000257
01003	13337017	-9.824325	-0.277018	0.286125	-0.008276	0.001662	0.000445
01004	13337067	-9.801293	-0.278333	0.300411	-0.003908	0.002323	0.001042
01005	13337117	-9.800148	-0.287655	0.287544	-0.007918	0.000308	-0.001489
01006	13337167	-9.788747	-0.288081	0.294261	-0.001775	-0.001547	0.001400
01007	13337217	-9.799247	-0.288300	0.297575	-0.008845	-0.001839	-0.000988
01008	13337267	-9.793022	-0.271402	0.295636	-0.002307	0.001859	-0.003355
01009	13337317	-9.775447	-0.302378	0.290998	-0.004240	0.001475	-0.000153
01010	13337367	-9.795417	-0.298778	0.315337	-0.008492	0.001100	-0.004017
01011	13337417	-9.801708	-0.279982	0.293357	-0.005600	-0.001297	-0.001694
01012	13337467	-9.823099	-0.293809	0.313828	-0.000867	-0.002250	-0.002354
01013	13337517	-9.804773	-0.293903	0.316323	-0.006789	-0.000028	-0.002071
01014	13337567	-9.803039	-0.281637	0.280272	-0.004768	0.003148	-0.000007
01015	13337617	-9.804249	-0.287813	0.296164	-0.002743	-0.000146	0.001632
01016	13337667	-9.815145	-0.286320	0.282504	-0.004451	0.003120	0.000407
01017	13337717	-9.802279	-0.285762	0.280584	-0.003202	0.000681	-0.002971
01018	13337767	-9.801594	-0.300422	0.316073	-0.006517	0.001854	0.001238
01019	13337817	-9.789425	-0.302690	0.277512	-0.009726	0.004625	-0.005019
01020	13337867	-9.802387	-0.283339	0.294304	-0.003506	-0.000811	-0.002722
01021	13337917	-9.802072	-0.289413	0.294717	-0.004564	-0.000502	0.000165
01022	13337967	-9.818273	-0.276582	0.269429	-0.004824	-0.000710	-0.004066
01023	13338017	-9.815203	-0.277809	0.313979	-0.000996	-0.001052	-0.000747
01024	13338067	-9.803653	-0.276376	0.292130	-0.002441	-0.000951	0.000028
01025	13338117	-9.811696	-0.286239	0.303155	-0.003047	0.001009	-0.002845
01026	13338167	-9.814172	-0.291724	0.291392	-0.005389	0.002354	-0.002062
01027	13338217	-9.813735	-0.288570	0.292450	-0.003462	-0.001001	0.000673
01028	13338267	-9.796999	-0.278039	0.298308	-0.003760	0.001514	0.000204
01029	13338317	-9.805727	-0.284154	0.296632	-0.003774	0.002702	-0.002480
01030	13338367	-9.791638	-0.271184	0.303416	-0.003678	0.005130	-0.000673
01031	13338417	-9.792003	-0.298952	0.303049	-0.002076	0.000706	-0.000764
01032	13338467	-9.812436	-0.277150	0.288748	-0.006178	0.000183	0.000843
01033	13338517	-9.802547	-0.294886	0.305723	-0.009000	0.001258	-0.000875
01034	13338567	-9.801722	-0.293139	0.283110	-0.004769	0.003914	-0.002506
01035	13338617	-9.812997	-0.289930	0.290245	-0.001196	0.000238	0.000867
01036	13338667	-9.805972	-0.300365	0.291319	-0.005753	0.004934	-0.000955
01037	13338717	-9.801557	-0.289143	0.286798	-0.005176	0.000484	-0.000696
01038	13338767	-9.821648	-0.270321	0.301521	-0.006694	-0.000895	-0.001500
01039	13338817	-9.820724	-0.287509	0.302434	-0.002160	0.003245	-0.003188
01040	13338867	-9.784241	-0.310962	0.303550	-0.005341	-0.003486	-0.001874
01041	13338917	-9.816732	-0.281164	0.298369	-0.004021	0.000668	-0.000374
01042	13338967	-9.815487	-0.268470	0.303411	0.000503	0.000005	-0.002439
01043	13339017	-9.810542	-0.276186	0.290769	-0.002391	-0.001493	0.000541
01044	13339067	-9.798717	-0.282173	0.314798	-0.005805	0.002249	-0.003310
01045	13339117	-9.800627	-0.273048	0.296793	-0.001948	0.002002	0.001642
01046	13339167	-9.801673	-0.304886	0.299056	-0.006274	0.000022	0.001132
01047	13339217	-9.819718	-0.294589	0.308712	-0.005949	0.000992	0.001266
01048	13339267	-9.808326	-0.291695	0.308639	-0.003506	0.001516	-0.000792
01049	13339317	-9.803376	-0.280423	0.294138	-0.003516	0.002877	0.000599
01050	13339367	-9.799724	-0.290711	0.302679	-0.002420	-0.000396	0.000412
01051	13339417	-9.796323	-0.297938	0.306148	-0.006032	0.001403	-0.002006
01052	13339467	-9.800191	-0.289842	0.299701	0.000588	0.001191	-0.005384
01053	13339517	-9.778978	-0.292388	0.300315	-0.004635	0.002725	-0.001520
01054	13339567	-9.812994	-0.279246	0.307344	-0.003557	-0.004003	0.001232
01055	13339617	-9.796454	-0.302480	0.298809	-0.005126	-0.000638	0.002439
01056	13339667	-9.819512	-0.288835	0.301500	-0.007231	0.000904	-0.000237
01057	13339717	-9.810623	-0.267796	0.285650	-0.004766	0.000884	0.000846
01058	13339767	-9.825985	-0.280953	0.292500	-0.005687	-0.001490	-0.001341
01059	13339817	-9.800529	-0.286014	0.306342	-0.002442	0.005443	-0.000194
01060	13339867	-9.820612	-0.266513	0.291891	-0.004563	0.001462	-0.003473
01061	13339917	-9.794613	-0.298459	0.282685	-0.003725	-0.001145	-0.004449
01062	13339967	-9.809149	-0.272805	0.309284	-0.005060	0.001003	-0.001295
01063	13340017	-9.798149	-0.278713	0.314202	-0.005975	0.002695	-0.001249
01064	13340067	-9.817476	-0.282716	0.289542	-0.006125	-0.002124	-0.005567
01065	13340117	-9.804129	-0.283650	0.289349	-0.006228	0.001464	-0.002283
01066	13340167	-9.801590	-0.305374	0.268946	-0.007188	0.001347	-0.003500
01067	13340217	-9.807205	-0.284272	0.287384	-0.005174	0.004006	0.000678
01068	13340267	-9.800456	-0.296312	0.299889	-0.003498	0.002321	-0.001228
01069	13340317	-9.801233	-0.292662	0.302257	-0.001229	0.003128	-0.004143
01070	13340367	-9.816250	-0.272130	0.301451	-0.006548	-0.000478	-0.002096
01071	13340417	-9.805638	-0.276634	0.287903	-0.007943	0.002702	0.002763
01072	13340467	-9.801779	-0.280616	0.288038	-0.002380	0.004803	0.003462
01073	13340517	-9.794659	-0.304773	0.302407	-0.002563	0.003015	-0.001486
01074	13340567	-9.803357	-0.270673	0.293394	-0.000013	0.002191	-0.002102
01075	13340617	-9.812431	-0.276918	0.308241	-0.003799	0.003699	-0.001541
01076	13340667	-9.795321	-0.282048	0.287793	-0.004521	0.003368	0.000318
01077	13340717	-9.794840	-0.286939	0.296691	-0.006388	0.002655	-0.000673
01078	13340767	-9.787739	-0.296218	0.283266	-0.001589	0.001349	-0.002070
01079	13340817	-9.799447	-0.277621	0.290542	-0.003330	-0.000003	-0.000666
01080	13340867	-9.808688	-0.286413	0.301779	-0.006090	0.002702	0.001282
01081	13340917	-9.796291	-0.306757	0.300980	-0.003453	0.004803	-0.002593
01082	13340967	-9.793453	-0.286030	0.301246	-0.004853	0.001650	-0.001322
01083	13341017	-9.802625	-0.294924	0.301055	-0.006183	0.002210	-0.000262
01084	13341067	-9.816115	-0.284260	0.304050	-0.005284	0.000126	-0.000370
01085	13341117	-9.802483	-0.280151	0.286479	-0.005577	0.002644	0.002340
01086	13341167	-9.809619	-0.265727	0.294849	-0.003791	0.002737	0.000283
01087	13341217	-9.790150	-0.286160	0.307929	-0.006311	0.003205	-0.001984
01088	13341267	-9.802780	-0.282641	0.301365	-0.001621	-0.001716	-0.003406
01089	13341317	-9.783930	-0.283877	0.297465	-0.006955	-0.001511	0.002511
01090	13341367	-9.793756	-0.290062	0.281632	-0.004121	0.000530	-0.002902
01091	13341417	-9.798549	-0.317205	0.302715	-0.002559	0.001850	-0.001908
01092	13341467	-9.800689	-0.288869	0.283782	-0.003853	0.002611	0.001178
01093	13341517	-9.815929	-0.299955	0.305516	-0.004599	0.000492	-0.002867
01094	13341567	-9.798811	-0.309132	0.289776	-0.003355	0.002971	0.000666
01095	13341617	-9.817788	-0.281293	0.298840	-0.000997	-0.000018	-0.000443
01096	13341667	-9.809052	-0.282376	0.312910	-0.005949	0.000920	-0.001037
01097	13341717	-9.793533	-0.294984	0.293602	-0.006472	0.000133	-0.002002
01098	13341767	-9.793800	-0.287516	0.283360	-0.004016	-0.000989	-0.004130
01099	13341817	-9.791394	-0.283652	0.309723	-0.002137	-0.001102	0.002980
01100	13341867	-9.801417	-0.294174	0.295969	-0.002893	0.002294	-0.002707
01101	13341917	-9.813204	-0.276271	0.278657	-0.004514	-0.000252	-0.003031
01102	13341967	-9.807900	-0.289245	0.294783	-0.001808	0.005447	-0.001858
01103	13342017	-9.803705	-0.278120	0.286696	-0.003555	0.001029	-0.000370
01104	13342067	-9.805800	-0.308776	0.303257	-0.007014	0.001194	-0.001514
01105	13342117	-9.805173	-0.300217	0.299702	-0.004078	0.000142	-0.002259
01106	13342167	-9.804906	-0.288244	0.309027	-0.001852	-0.000298	-0.002240
01107	13342217	-9.811740	-0.286349	0.294021	-0.003799	-0.000201	0.001358
01108	13342267	-9.828321	-0.277120	0.299237	-0.000241	0.002804	0.002101
01109	13342317	-9.798518	-0.299448	0.300669	-0.004595	-0.001804	-0.003044
01110	13342367	-9.802638	-0.296483	0.305709	-0.002029	-0.000915	-0.002304
01111	13342417	-9.783560	-0.288982	0.285214	-0.003199	-0.000098	-0.001247
01112	13342467	-9.815797	-0.263580	0.286725	-0.001001	0.003269	-0.001548
01113	13342517	-9.799711	-0.276829	0.293053	-0.003444	0.005478	-0.004191
01114	13342567	-9.813175	-0.286682	0.295684	-0.005158	-0.000038	-0.002548
01115	13342617	-9.797643	-0.290683	0.295556	-0.003930	-0.001137	0.000294
01116	13342667	-9.830020	-0.282443	0.315852	-0.004710	0.000297	0.000817
01117	13342717	-9.804047	-0.290917	0.291835	-0.007027	-0.001352	0.001103
01118	13342767	-9.789810	-0.308197	0.296309	0.001710	-0.000558	0.000084
01119	13342817	-9.797879	-0.292582	0.299075	-0.002109	0.003291	0.002906
01120	13342867	-9.794247	-0.285232	0.312717	-0.002535	0.002468	0.000726
01121	13342917	-9.809272	-0.281662	0.308713	-0.004359	0.003271	-0.001729
01122	13342967	-9.812895	-0.294373	0.304193	-0.003213	0.002456	-0.001228
01123	13343017	-9.805024	-0.270452	0.292964	-0.002092	0.001177	-0.001974
01124	13343067	-9.819051	-0.274223	0.296530	-0.004943	0.004455	-0.002491
01125	13343117	-9.798368	-0.292827	0.300791	-0.004113	0.002336	-0.003309
01126	13343167	-9.808655	-0.287588	0.298451	-0.006174	0.002180	0.000059
01127	13343217	-9.807692	-0.284141	0.328478	-0.002561	-0.001321	-0.004361
01128	13343267	-9.806505	-0.264916	0.289583	-0.007232	0.001865	-0.002659
01129	13343317	-9.807156	-0.288426	0.289405	-0.001123	0.000911	-0.000892
01130	13343367	-9.805732	-0.282625	0.315485	-0.005111	0.000349	-0.003349
01131	13343417	-9.782198	-0.293464	0.306048	-0.002251	-0.000188	-0.005095
01132	13343467	-9.804031	-0.288015	0.282876	0.000019	0.001419	0.000201
01133	13343517	-9.800023	-0.289538	0.291586	-0.001802	0.005418	-0.001085
01134	13343567	-9.808413	-0.291234	0.303784	-0.005787	0.000830	-0.000139
01135	13343617	-9.807742	-0.284997	0.299694	-0.001734	-0.000940	-0.000609
01136	13343667	-9.798903	-0.287778	0.299896	-0.003093	-0.000645	-0.002846
01137	13343717	-9.790453	-0.298242	0.302697	-0.004797	-0.000552	-0.004958
01138	13343767	-9.815017	-0.282681	0.276946	-0.003450	0.000603	-0.003096
01139	13343817	-9.796007	-0.271404	0.299570	-0.007091	0.003576	-0.003774
01140	13343867	-9.784708	-0.293571	0.289035	-0.000577	0.000145	0.000706
01141	13343917	-9.817275	-0.280738	0.291815	-0.003499	0.000121	-0.001978
01142	13343967	-9.803967	-0.285113	0.305859	-0.004913	0.003618	-0.001152
01143	13344017	-9.820589	-0.271587	0.308795	-0.003371	0.002253	-0.001898
01144	13344067	-9.804799	-0.284539	0.283765	-0.003709	0.002734	-0.003439
01145	13344117	-9.809234	-0.274323	0.287736	-0.004055	-0.000137	0.000942
01146	13344167	-9.806345	-0.264404	0.301523	-0.007302	0.002286	-0.002275
01147	13344217	-9.795239	-0.275323	0.299352	-0.004995	0.002101	-0.000455
01148	13344267	-9.794900	-0.281166	0.295340	-0.003683	-0.000909	0.001316
01149	13344317	-9.800016	-0.292203	0.296363	-0.006617	-0.002189	0.000744
01150	13344367	-9.794248	-0.283595	0.309425	-0.003001	0.001649	-0.001427
01151	13344417	-9.798296	-0.297663	0.298669	-0.001958	0.000219	0.000903
01152	13344467	-9.802049	-0.295958	0.286479	-0.001669	0.000991	-0.002685
01153	13344517	-9.795647	-0.299298	0.297707	-0.004517	0.000238	0.000720
01154	13344567	-9.792889	-0.299604	0.276169	-0.006801	-0.000742	-0.001684
01155	13344617	-9.803615	-0.286800	0.290907	-0.006998	-0.001586	-0.003127
01156	13344667	-9.809134	-0.287383	0.297713	-0.004363	0.005436	-0.001527
01157	13344717	-9.810452	-0.279510	0.301644	-0.005586	-0.000195	0.002932
01158	13344767	-9.804622	-0.284936	0.295895	-0.001514	-0.001006	-0.002214
01159	13344817	-9.807766	-0.297702	0.290243	-0.003015	0.004230	-0.000933
01160	13344867	-9.806398	-0.288480	0.282403	-0.002706	0.001696	0.001972
01161	13344917	-9.805099	-0.289798	0.304966	-0.004800	0.000975	-0.000781
01162	13344967	-9.795802	-0.293175	0.310375	-0.003185	0.001191	-0.003289
01163	13345017	-9.794104	-0.286649	0.292406	-0.006031	0.001600	0.000025
01164	13345067	-9.788917	-0.302751	0.294532	-0.004219	0.002626	-0.003020
01165	13345117	-9.799814	-0.285433	0.288929	-0.000370	-0.001561	-0.001034
01166	13345167	-9.799377	-0.294810	0.276841	-0.003741	0.001965	-0.000460
01167	13345217	-9.798491	-0.297350	0.291798	-0.004167	-0.000113	-0.002457
01168	13345267	-9.797929	-0.296283	0.313498	-0.006041	0.001661	-0.003182
01169	13345317	-9.798323	-0.291333	0.291273	-0.002383	-0.001431	0.001344
01170	13345367	-9.815562	-0.287083	0.297023	-0.001886	0.003127	0.000726
01171	13345417	-9.807452	-0.264861	0.288542	-0.004201	0.003637	0.001603
01172	13345467	-9.795605	-0.275631	0.281240	-0.003702	-0.002725	-0.003431
01173	13345517	-9.798361	-0.287668	0.289088	-0.002141	0.000529	-0.003164
01174	13345567	-9.797907	-0.290093	0.298662	-0.003333	0.002000	-0.002035
01175	13345617	-9.789966	-0.297883	0.301276	-0.004525	-0.000864	-0.002364
01176	13345667	-9.797002	-0.276549	0.278037	-0.006250	0.002006	-0.004747
01177	13345717	-9.817075	-0.278871	0.295447	-0.005358	0.001449	-0.000872
01178	13345767	-9.803605	-0.271833	0.297087	-0.007024	-0.001353	0.001997
01179	13345817	-9.807445	-0.286559	0.292424	-0.004156	0.004920	-0.002462
01180	13345867	-9.806740	-0.275252	0.311247	-0.003854	-0.000493	-0.000089
01181	13345917	-9.808907	-0.289631	0.304010	-0.003125	0.001517	-0.002227
01182	13345967	-9.798576	-0.279154	0.307547	-0.002174	0.000464	-0.005118
01183	13346017	-9.804552	-0.273858	0.299677	-0.005823	0.000658	-0.003632
01184	13346067	-9.801536	-0.281968	0.290348	-0.005804	-0.001888	-0.002012
01185	13346117	-9.795838	-0.290743	0.309866	-0.004762	0.002815	-0.001414
01186	13346167	-9.812683	-0.291081	0.302043	-0.000336	0.002410	-0.000919
01187	13346217	-9.820716	-0.282721	0.312662	-0.003333	0.004328	-0.000478
01188	13346267	-9.788374	-0.291221	0.299345	-0.008682	0.000225	-0.002384
01189	13346317	-9.822191	-0.291579	0.299993	-0.007766	0.001732	-0.000639
01190	13346367	-9.809469	-0.277881	0.295383	-0.004504	0.000625	-0.000751
01191	13346417	-9.796820	-0.301292	0.298437	-0.004419	0.000714	-0.003989
01192	13346467	-9.781921	-0.292118	0.297127	-0.004478	0.002618	-0.004689
01193	13346517	-9.778750	-0.292074	0.284487	-0.004734	0.000552	-0.003351
01194	13346567	-9.789094	-0.289825	0.297101	-0.005430	0.004572	-0.003680
01195	13346617	-9.788728	-0.281669	0.298386	-0.007091	0.000676	0.000370
01196	13346667	-9.784572	-0.309372	0.298362	-0.001951	0.002863	-0.001454
01197	13346717	-9.799436	-0.289133	0.313032	-0.001951	0.000963	-0.000922
01198	13346767	-9.827038	-0.280190	0.291187	-0.009386	0.001080	-0.004324
01199	13346817	-9.781880	-0.298551	0.303360	-0.004021	0.000435	-0.003161
01200	13346867	-9.792922	-0.274801	0.308579	-0.000843	0.004366	-0.002281
01201	13346917	-9.822337	-0.278963	0.297638	-0.004911	-0.000636	-0.000402
01202	13346967	-9.810337	-0.284031	0.292202	-0.003564	0.003316	-0.002921
01203	13347017	-9.809356	-0.286360	0.293933	-0.006529	0.000104	-0.000560
01204	13347067	-9.806726	-0.296864	0.312860	-0.006728	0.001129	-0.001643
01205	13347117	-9.807475	-0.294009	0.313365	-0.005645	-0.000655	0.000045
01206	13347167	-9.807170	-0.280858	0.274055	-0.003550	-0.000300	-0.002810
01207	13347217	-9.794526	-0.277617	0.303780	-0.000645	-0.003316	-0.003736
01208	13347267	-9.803957	-0.286256	0.306321	-0.006434	0.001010	-0.001965
01209	13347317	-9.791233	-0.289015	0.295331	-0.008009	0.000078	-0.001324
01210	13347367	-9.804713	-0.298977	0.300192	-0.003718	0.000153	-0.000146
01211	13347417	-9.803412	-0.289963	0.303257	-0.000942	0.001531	0.000843
01212	13347467	-9.818535	-0.263943	0.307159	-0.001525	0.000544	-0.002012
01213	13347517	-9.805284	-0.285976	0.288639	-0.003945	0.002347	-0.000615
01214	13347567	-9.813955	-0.279268	0.290499	-0.005366	0.003677	-0.002078
01215	13347617	-9.805137	-0.286046	0.303512	-0.004616	0.000100	-0.002005
01216	13347667	-9.800303	-0.297229	0.276695	-0.004008	-0.001311	-0.004291
01217	13347717	-9.811926	-0.290748	0.294462	-0.003705	-0.000564	-0.003804
01218	13347767	-9.823507	-0.284785	0.305955	-0.002714	0.000948	0.000719
01219	13347817	-9.801691	-0.289061	0.292129	-0.005955	0.005411	0.001392
01220	13347867	-9.799601	-0.280655	0.283702	-0.006548	-0.003480	0.000031
01221	13347917	-9.811583	-0.288836	0.312428	-0.007104	0.000030	-0.000270
01222	13347967	-9.818086	-0.271972	0.289217	-0.006221	0.001235	-0.002827
01223	13348017	-9.805414	-0.296005	0.291550	-0.003289	-0.001553	-0.002369
01224	13348067	-9.797721	-0.285960	0.298197	-0.003635	0.000807	0.001520
01225	13348117	-9.817576	-0.272616	0.285351	-0.003717	0.001960	-0.002447
01226	13348167	-9.795549	-0.276798	0.313264	-0.001781	0.001509	-0.002228
01227	13348217	-9.816986	-0.271743	0.303642	-0.005741	-0.002695	-0.002463
01228	13348267	-9.803351	-0.276014	0.302436	-0.006703	0.004619	-0.001882
01229	13348317	-9.797955	-0.285110	0.294891	-0.003008	-0.000390	-0.003390
01230	13348367	-9.776996	-0.291134	0.308188	-0.001197	-0.001835	-0.000875
01231	13348417	-9.793115	-0.294349	0.301450	-0.000713	0.004507	0.001146
01232	13348467	-9.825752	-0.267491	0.288555	-0.002704	0.000431	-0.000853
01233	13348517	-9.803535	-0.275837	0.293372	-0.003152	0.001520	-0.001362
01234	13348567	-9.820268	-0.285478	0.285212	-0.004762	-0.001481	-0.002652
01235	13348617	-9.798365	-0.285467	0.287250	-0.003003	-0.000317	-0.001822
01236	13348667	-9.796942	-0.291479	0.297936	-0.004309	0.000629	-0.001108
01237	13348717	-9.809522	-0.276719	0.301844	-0.003205	0.000230	0.001326
01238	13348767	-9.812128	-0.278664	0.301326	-0.005204	0.001743	-0.001065
01239	13348817	-9.790475	-0.289606	0.288349	-0.006484	0.001591	-0.001097
01240	13348867	-9.811316	-0.278724	0.287301	-0.003428	-0.000037	-0.001301
01241	13348917	-9.796192	-0.285328	0.280337	-0.000617	0.005338	-0.001572
01242	13348967	-9.797582	-0.292744	0.289530	-0.002950	0.003533	0.002716
01243	13349017	-9.817435	-0.282993	0.284752	-0.000008	0.005323	-0.000326
01244	13349067	-9.792602	-0.293759	0.293772	-0.004622	0.003429	-0.000772
01245	13349117	-9.816774	-0.283649	0.293228	-0.007182	0.001282	-0.002054
01246	13349167	-9.795308	-0.300673	0.322403	-0.003050	-0.000101	-0.003742
01247	13349217	-9.812960	-0.273200	0.310741	-0.003847	0.001986	-0.004047
01248	13349267	-9.789009	-0.298390	0.300265	-0.001550	0.000124	-0.003072
01249	13349317	-9.805216	-0.293242	0.292176	-0.001660	0.002538	-0.004500
01250	13349367	-9.797278	-0.272794	0.315433	-0.002161	0.001407	-0.001621
01251	13349417	-9.823987	-0.278236	0.294212	-0.004571	0.002915	0.000127
01252	13349467	-9.807045	-0.280503	0.292411	-0.006076	0.002587	-0.006089
01253	13349517	-9.801046	-0.281623	0.288382	-0.003410	0.002811	0.001595
01254	13349567	-9.790663	-0.293742	0.289518	-0.005361	0.002249	-0.002635
01255	13349617	-9.809000	-0.298896	0.299630	-0.005486	0.003149	-0.005963
01256	13349667	-9.822002	-0.286527	0.297841	-0.005130	0.000389	0.001460
01257	13349717	-9.815259	-0.292636	0.298308	-0.003961	-0.000106	0.000748
01258	13349767	-9.808505	-0.283630	0.305307	-0.003301	-0.001773	0.000641
01259	13349817	-9.815569	-0.290898	0.307132	-0.005968	0.002667	0.000320
01260	13349867	-9.799626	-0.284646	0.285090	-0.002616	0.000365	-0.002777
01261	13349917	-9.793533	-0.300148	0.282273	-0.006913	-0.002322	-0.001438
01262	13349967	-9.801696	-0.305997	0.305500	-0.003714	0.000963	-0.000018
01263	13350017	-9.786460	-0.302186	0.297986	-0.000090	0.000514	-0.000831
01264	13350067	-9.803202	-0.291646	0.288457	-0.005167	0.001897	-0.005870
01265	13350117	-9.805033	-0.283641	0.299044	-0.003383	0.000616	-0.000787
01266	13350167	-9.799444	-0.288934	0.291844	-0.005647	0.001156	-0.001102
01267	13350217	-9.800123	-0.283093	0.312639	-0.002614	0.003599	-0.001064
01268	13350267	-9.809682	-0.275932	0.303168	-0.007853	0.000148	-0.001774
01269	13350317	-9.827430	-0.283217	0.299109	-0.006603	0.001238	-0.001065
01270	13350367	-9.788253	-0.285404	0.285266	-0.004892	0.002620	-0.002728
01271	13350417	-9.806488	-0.273441	0.283460	-0.003452	0.001778	-0.000047
01272	13350467	-9.789646	-0.290238	0.288858	-0.003558	0.002869	-0.002825
01273	13350517	-9.811672	-0.277369	0.280379	-0.004182	0.000273	-0.003701
01274	13350567	-9.795616	-0.289770	0.289706	-0.002632	-0.000115	-0.001627
01275	13350617	-9.783914	-0.282522	0.309273	-0.003561	-0.000770	0.001641
01276	13350667	-9.801134	-0.283915	0.285343	-0.004661	0.001364	-0.002802
01277	13350717	-9.814364	-0.269314	0.316036	-0.002162	0.003642	-0.000228
01278	13350767	-9.784534	-0.300001	0.290751	-0.004027	0.002404	-0.004432
01279	13350817	-9.810178	-0.290042	0.296589	-0.006656	0.004079	-0.000313
01280	13350867	-9.833927	-0.274616	0.294311	-0.008511	0.004111	0.000114
01281	13350917	-9.814758	-0.285840	0.297418	-0.005847	0.000606	-0.000105
01282	13350967	-9.809918	-0.289150	0.291242	-0.005209	-0.000779	-0.004441
01283	13351017	-9.804318	-0.288244	0.308542	-0.004949	0.002785	-0.000294
01284	13351067	-9.818332	-0.287635	0.302212	-0.005575	0.002094	-0.000804
01285	13351117	-9.812325	-0.280548	0.277472	-0.003336	0.003132	-0.000807
01286	13351167	-9.801475	-0.278000	0.290819	-0.004543	0.001892	0.000567
01287	13351217	-9.807304	-0.279833	0.312515	-0.004112	-0.000563	-0.000956
01288	13351267	-9.811113	-0.305879	0.287359	-0.001309	0.001650	-0.002326
01289	13351317	-9.826014	-0.272814	0.319476	0.000047	0.001386	-0.001660
01290	13351367	-9.805058	-0.295370	0.288033	-0.001775	0.000996	-0.003191
01291	13351417	-9.813471	-0.273274	0.294041	-0.003906	0.000798	-0.002738
01292	13351467	-9.814497	-0.275169	0.310705	-0.002284	0.004444	-0.000998
01293	13351517	-9.815127	-0.298432	0.266006	-0.004132	0.000089	0.000236
01294	13351567	-9.804382	-0.302256	0.309364	-0.005235	0.001621	0.000218
01295	13351617	-9.813341	-0.282864	0.294305	-0.002423	-0.000168	0.002604
01296	13351667	-9.797038	-0.291121	0.292774	-0.006144	0.001726	-0.002184
01297	13351717	-9.814198	-0.282803	0.316165	-0.005511	0.000258	0.000179
01298	13351767	-9.801349	-0.300390	0.276040	-0.002127	-0.000142	-0.004035
01299	13351817	-9.825082	-0.267051	0.311325	-0.006206	0.002692	-0.003298
01300	13351867	-9.806955	-0.283013	0.301233	-0.003444	0.002324	-0.001771
01301	13351917	-9.826334	-0.280950	0.272314	-0.004623	0.000336	-0.000146
01302	13351967	-9.820952	-0.269580	0.342248	-0.003947	0.002284	-0.001576
01303	13352017	-9.804111	-0.296585	0.291649	-0.003588	-0.000102	-0.000694
01304	13352067	-9.806181	-0.295750	0.316957	-0.005027	0.000945	-0.000170
01305	13352117	-9.775038	-0.306885	0.308739	-0.005265	0.000585	0.001298
01306	13352167	-9.801991	-0.286050	0.273624	-0.003558	0.001097	0.000242
01307	13352217	-9.807655	-0.280655	0.331813	-0.006033	0.003342	-0.002625
01308	13352267	-9.796904	-0.283686	0.294647	-0.006702	0.000331	-0.000335
01309	13352317	-9.806020	-0.298511	0.295691	-0.005001	0.000973	-0.002030
01310	13352367	-9.792852	-0.294204	0.315568	-0.003728	0.000251	-0.001077
01311	13352417	-9.804624	-0.279394	0.301491	-0.001719	-0.001650	-0.001930
01312	13352467	-9.825199	-0.277716	0.313052	-0.002459	-0.000437	-0.002076
01313	13352517	-9.800644	-0.284351	0.284374	-0.007600	0.001248	-0.002828
01314	13352567	-9.814386	-0.289573	0.282501	-0.009093	0.002296	0.001451
01315	13352617	-9.794121	-0.288986	0.316891	-0.005426	0.003354	-0.001476
01316	13352667	-9.795197	-0.279388	0.277678	-0.005797	-0.000006	-0.000143
01317	13352717	-9.796801	-0.277928	0.303313	-0.004002	-0.000078	-0.001433
01318	13352767	-9.796965	-0.287818	0.311886	-0.003576	0.003516	-0.002086
01319	13352817	-9.774866	-0.295825	0.296931	-0.003517	0.002807	-0.001193
01320	13352867	-9.793819	-0.295969	0.319871	-0.007600	-0.000785	-0.002968
01321	13352917	-9.803685	-0.287663	0.281324	-0.006873	-0.000415	-0.000275
01322	13352967	-9.808678	-0.285865	0.315293	-0.003737	0.003573	-0.002568
01323	13353017	-9.816944	-0.280495	0.293572	-0.005544	0.001958	-0.004299
01324	13353067	-9.813545	-0.280089	0.281210	-0.005508	0.006426	0.000275
01325	13353117	-9.802622	-0.301280	0.291124	-0.001513	0.000167	0.000098
01326	13353167	-9.805928	-0.278975	0.280376	-0.000136	0.000730	-0.004229
01327	13353217	-9.788931	-0.292137	0.293948	-0.002030	0.001350	0.000784
01328	13353267	-9.789071	-0.285470	0.301505	-0.003164	0.004484	-0.005032
01329	13353317	-9.801063	-0.285896	0.315967	-0.005297	0.002622	0.001408
01330	13353367	-9.807759	-0.282028	0.313391	-0.006466	0.002850	-0.002756
01331	13353417	-9.789577	-0.278689	0.293887	-0.001167	0.003105	-0.002608
01332	13353467	-9.804957	-0.287815	0.295851	-0.001360	0.004459	-0.001416
01333	13353517	-9.809377	-0.292529	0.287914	-0.005248	-0.002355	-0.000990
01334	13353567	-9.805825	-0.309430	0.286617	-0.006691	0.000615	-0.004819
01335	13353617	-9.811305	-0.283155	0.311764	-0.005999	0.001376	-0.000139
01336	13353667	-9.808758	-0.267934	0.292895	-0.002623	-0.002272	0.000350
01337	13353717	-9.791288	-0.282144	0.306635	-0.001752	0.000547	-0.000825
01338	13353767	-9.799273	-0.270421	0.304028	-0.002511	0.001110	-0.002580
01339	13353817	-9.807550	-0.298645	0.313443	-0.006154	0.003147	-0.001761
01340	13353867	-9.802785	-0.290746	0.296114	-0.004030	0.001601	-0.003155
01341	13353917	-9.800521	-0.301168	0.298520	-0.006174	0.001596	-0.002829
01342	13353967	-9.815550	-0.279240	0.296689	-0.000654	0.001211	-0.001240
01343	13354017	-9.790109	-0.285855	0.315843	-0.003337	-0.003097	-0.001705
01344	13354067	-9.796638	-0.287278	0.295716	-0.002793	-0.002022	-0.000418
01345	13354117	-9.808570	-0.289182	0.266743	-0.000431	-0.000787	-0.001223
01346	13354167	-9.824339	-0.280980	0.295957	-0.001128	0.003110	0.000086
01347	13354217	-9.800170	-0.277718	0.308792	-0.002027	0.001355	0.000782
01348	13354267	-9.817292	-0.297246	0.307059	-0.003240	-0.000131	-0.003036
01349	13354317	-9.811983	-0.297671	0.296003	-0.005218	-0.001161	-0.000665
01350	13354367	-9.795046	-0.295686	0.286498	-0.005221	0.000969	-0.000785
01351	13354417	-9.788652	-0.294925	0.291815	-0.004262	-0.001010	-0.000440
01352	13354467	-9.795795	-0.281980	0.304093	-0.006426	-0.000668	-0.002643
01353	13354517	-9.784980	-0.300911	0.287581	-0.004864	0.004780	-0.004351
01354	13354567	-9.795712	-0.286437	0.299673	-0.005762	0.000601	-0.003028
01355	13354617	-9.805773	-0.277872	0.292542	-0.009894	0.002047	-0.002588
01356	13354667	-9.807120	-0.278022	0.278198	-0.004431	0.000878	-0.005335
01357	13354717	-9.833566	-0.271374	0.305147	-0.003268	0.002738	-0.005805
01358	13354767	-9.826021	-0.262560	0.300917	-0.004847	-0.002998	-0.002372
01359	13354817	-9.814933	-0.296344	0.308688	-0.005791	0.001796	-0.003212
01360	13354867	-9.795729	-0.289225	0.308315	-0.004502	0.001398	-0.002485
01361	13354917	-9.806520	-0.293027	0.287982	-0.004461	0.002014	-0.003148
01362	13354967	-9.807900	-0.291263	0.315562	-0.004426	0.002145	-0.001932
01363	13355017	-9.819204	-0.271394	0.293676	-0.004780	-0.001896	-0.000283
01364	13355067	-9.795741	-0.296082	0.284813	-0.004546	0.002986	-0.001414
01365	13355117	-9.798181	-0.291046	0.323659	-0.004793	0.002757	0.000286
01366	13355167	-9.791727	-0.298132	0.292854	-0.002972	0.005654	-0.003935
01367	13355217	-9.791139	-0.273098	0.303940	-0.005372	0.001969	0.000249
01368	13355267	-9.806782	-0.288524	0.282704	-0.003164	0.001419	-0.004468
01369	13355317	-9.803640	-0.298625	0.295895	-0.004988	-0.000484	-0.003515
01370	13355367	-9.813223	-0.286031	0.280228	-0.003356	-0.000155	0.000655
01371	13355417	-9.805839	-0.275993	0.298020	-0.004772	0.001079	0.000980
01372	13355467	-9.789184	-0.300861	0.313353	-0.008222	-0.000511	-0.004278
01373	13355517	-9.788268	-0.283973	0.283545	-0.006451	0.002366	-0.002856
01374	13355567	-9.799603	-0.289912	0.281251	-0.004100	0.004219	-0.000028
01375	13355617	-9.799853	-0.279598	0.300462	-0.002211	-0.000203	-0.001727
01376	13355667	-9.791672	-0.294669	0.317683	-0.008894	-0.000193	-0.001006
01377	13355717	-9.811322	-0.267544	0.282278	-0.002531	0.001088	0.001425
01378	13355767	-9.792507	-0.274179	0.295890	-0.002906	-0.000317	-0.001082
01379	13355817	-9.809690	-0.254768	0.300401	-0.005631	0.002898	-0.001734
01380	13355867	-9.824576	-0.289710	0.275415	-0.003177	0.001076	-0.001105
01381	13355917	-9.811716	-0.283368	0.300360	-0.001671	-0.001461	-0.004969
01382	13355967	-9.809675	-0.284061	0.280326	-0.007851	0.001545	0.001346
01383	13356017	-9.797641	-0.306149	0.304748	-0.006112	0.001958	0.000028
01384	13356067	-9.798941	-0.289060	0.287225	-0.004016	0.004481	-0.000192
01385	13356117	-9.791784	-0.284963	0.276844	-0.002052	0.002129	0.001105
01386	13356167	-9.800614	-0.282345	0.314176	-0.002388	-0.000563	0.000323
01387	13356217	-9.781598	-0.301065	0.280657	-0.003996	0.002903	0.000919
01388	13356267	-9.792137	-0.276906	0.318648	-0.004762	0.000623	-0.001395
01389	13356317	-9.806649	-0.287669	0.299759	-0.002696	0.001339	0.000304
01390	13356367	-9.792396	-0.305589	0.302757	-0.004503	0.004894	0.000871
01391	13356417	-9.802630	-0.285023	0.298019	-0.000225	0.001898	-0.000343
01392	13356467	-9.803072	-0.284902	0.293027	-0.002605	0.001505	0.002676
01393	13356517	-9.801958	-0.279486	0.293135	-0.001533	0.004812	-0.000449
01394	13356567	-9.809595	-0.278439	0.294265	-0.001435	0.000481	-0.003297
01395	13356617	-9.788560	-0.287231	0.299700	-0.002865	-0.001666	0.000602
01396	13356667	-9.814683	-0.290803	0.295795	-0.008012	-0.001919	-0.000662
01397	13356717	-9.788617	-0.287441	0.309682	-0.007720	0.003085	-0.003362
01398	13356767	-9.808428	-0.288666	0.280358	-0.004837	0.000911	-0.002003
01399	13356817	-9.790379	-0.291493	0.294970	-0.004279	0.001308	-0.002161
01400	13356867	-9.829895	-0.270630	0.288872	-0.004727	0.000893	0.003418
01401	13356917	-9.802243	-0.279152	0.300479	-0.001302	0.000454	-0.001790
01402	13356967	-9.785015	-0.285175	0.300903	-0.004694	-0.000706	-0.003421
01403	13357017	-9.802863	-0.285126	0.297550	-0.004792	0.002325	-0.005005
01404	13357067	-9.827625	-0.286391	0.299195	-0.006282	-0.001185	-0.004891
01405	13357117	-9.805628	-0.287690	0.287537	-0.002038	0.001676	0.000078
01406	13357167	-9.812243	-0.273374	0.288459	-0.000248	0.002575	-0.001395
01407	13357217	-9.813198	-0.279553	0.302482	-0.006570	-0.000893	-0.001494
01408	13357267	-9.794456	-0.294019	0.304060	-0.001047	-0.000707	-0.001704
01409	13357317	-9.803616	-0.288812	0.311029	-0.003079	-0.000123	-0.001980
01410	13357367	-9.812105	-0.299171	0.279668	-0.001705	0.000737	-0.004445
01411	13357417	-9.812778	-0.282476	0.277984	-0.004977	0.000267	0.000112
01412	13357467	-9.800370	-0.288481	0.286482	-0.003202	0.003646	-0.005227
01413	13357517	-9.809240	-0.288765	0.297418	-0.005320	-0.000299	-0.005017
01414	13357567	-9.803412	-0.297423	0.295686	-0.001901	-0.001208	-0.005292
01415	13357617	-9.783763	-0.308903	0.299920	-0.002482	-0.000056	-0.004895
01416	13357667	-9.812232	-0.286842	0.315355	-0.004748	0.001108	-0.002190
01417	13357717	-9.798676	-0.281235	0.306140	-0.002809	0.005055	0.000709
01418	13357767	-9.808953	-0.294191	0.299322	-0.005241	-0.000485	-0.001367
01419	13357817	-9.791271	-0.294231	0.290613	-0.002811	0.000820	0.000720
01420	13357867	-9.802150	-0.272467	0.310837	-0.002255	-0.002049	-0.004204
01421	13357917	-9.800604	-0.271559	0.290052	-0.003234	0.004073	0.000963
01422	13357967	-9.807375	-0.282160	0.289586	-0.002620	0.004662	-0.002661
01423	13358017	-9.823080	-0.277973	0.317790	-0.002471	0.003115	-0.002538
01424	13358067	-9.803980	-0.289238	0.293459	-0.007261	0.003676	-0.002717
01425	13358117	-9.817407	-0.278903	0.288078	-0.002975	0.000622	-0.001782
01426	13358167	-9.789758	-0.296405	0.280962	-0.004268	0.002313	-0.000072
01427	13358217	-9.789010	-0.289902	0.301403	-0.002409	0.000119	-0.000473
01428	13358267	-9.800585	-0.293188	0.291614	-0.003749	-0.000200	-0.001914
01429	13358317	-9.787588	-0.289630	0.301120	-0.002938	0.001359	-0.002580
01430	13358367	-9.791319	-0.293984	0.298013	-0.003045	-0.000352	-0.003808
01431	13358417	-9.799578	-0.290126	0.278358	-0.005580	0.002189	-0.001317
01432	13358467	-9.799701	-0.303553	0.285109	-0.002892	0.001075	-0.000980
01433	13358517	-9.803491	-0.278761	0.309285	-0.004293	0.001922	-0.002253
01434	13358567	-9.798092	-0.301984	0.291550	-0.004362	0.002081	-0.001641
01435	13358617	-9.797477	-0.278365	0.299077	-0.003650	-0.001362	-0.002304
01436	13358667	-9.810975	-0.302261	0.295940	-0.005583	0.001185	-0.003538
01437	13358717	-9.794330	-0.297886	0.290958	-0.003994	0.004736	-0.000925
01438	13358767	-9.805236	-0.280132	0.286708	-0.003475	-0.002939	-0.001252
01439	13358817	-9.813696	-0.277581	0.301241	-0.000542	0.000767	0.000229
01440	13358867	-9.825303	-0.284253	0.305902	-0.003397	0.000164	0.000687
01441	13358917	-9.797256	-0.287640	0.320525	-0.005765	0.001222	0.001207
01442	13358967	-9.803842	-0.280990	0.294246	-0.003507	0.001321	-0.001776
01443	13359017	-9.811682	-0.303051	0.296702	-0.001001	0.000374	0.002888
01444	13359067	-9.780149	-0.310779	0.295988	-0.002578	0.001371	-0.001816
01445	13359117	-9.806076	-0.288894	0.285388	-0.005292	0.002424	0.000287
01446	13359167	-9.806798	-0.289390	0.288088	-0.002825	-0.001888	0.001056
01447	13359217	-9.807040	-0.294362	0.297853	-0.002851	0.001784	-0.002351
01448	13359267	-9.810739	-0.286912	0.304130	-0.002297	-0.000594	-0.001953
01449	13359317	-9.802232	-0.285189	0.310992	-0.003862	0.001547	0.000564
01450	13359367	-9.804000	-0.278056	0.275250	-0.001614	0.003291	-0.002544
01451	13359417	-9.796779	-0.288362	0.282608	-0.006633	0.003972	-0.003327
01452	13359467	-9.807420	-0.277548	0.286862	-0.005192	0.000165	-0.000110
01453	13359517	-9.782135	-0.285094	0.296302	-0.008956	0.001445	-0.005066
01454	13359567	-9.799845	-0.311398	0.286329	-0.003472	0.000128	-0.002202
01455	13359617	-9.802448	-0.297631	0.294584	-0.006436	-0.002283	-0.002395
01456	13359667	-9.824588	-0.281966	0.300103	-0.004376	0.000762	-0.000110
01457	13359717	-9.805806	-0.282887	0.307706	-0.004114	-0.000624	-0.001979
01458	13359767	-9.808488	-0.293718	0.300357	-0.004234	0.006282	-0.001942
01459	13359817	-9.798537	-0.279235	0.279631	-0.006822	0.000037	-0.000845
01460	13359867	-9.785069	-0.300995	0.302030	-0.004558	0.001398	0.000207
01461	13359917	-9.814991	-0.269048	0.300958	-0.003672	0.000831	0.000881
01462	13359967	-9.797051	-0.293549	0.298952	-0.003627	0.002085	-0.002864
01463	13360017	-9.805391	-0.291994	0.297821	-0.006191	0.002397	-0.001699
01464	13360067	-9.815428	-0.291928	0.302689	-0.002947	0.001968	-0.001361
01465	13360117	-9.780476	-0.287887	0.302294	-0.003363	0.000835	-0.001079
01466	13360167	-9.797456	-0.283446	0.305718	-0.002433	0.000717	-0.002457
01467	13360217	-9.805446	-0.279826	0.281281	-0.006620	0.000837	-0.000329
01468	13360267	-9.796399	-0.285790	0.292967	-0.002009	0.002766	-0.000041
01469	13360317	-9.797281	-0.287677	0.285093	-0.000410	0.000528	-0.002528
01470	13360367	-9.799318	-0.288989	0.309821	-0.007428	-0.001209	-0.002293
01471	13360417	-9.823968	-0.273057	0.297934	-0.002322	0.001036	-0.005788
01472	13360467	-9.802454	-0.272469	0.282683	-0.003523	0.003090	-0.000708
01473	13360517	-9.812671	-0.280652	0.295727	-0.004248	0.000459	-0.003606
01474	13360567	-9.798413	-0.276858	0.293472	-0.007199	0.002962	-0.000572
01475	13360617	-9.811775	-0.294811	0.295519	-0.007694	0.000437	-0.000773
01476	13360667	-9.817098	-0.286828	0.292701	-0.004397	-0.001031	-0.003292
01477	13360717	-9.795808	-0.293150	0.289612	-0.007065	0.002605	-0.003685
01478	13360767	-9.802387	-0.280850	0.288453	-0.003853	0.002439	0.000343
01479	13360817	-9.824003	-0.295946	0.310397	-0.006461	0.000677	-0.003664
01480	13360867	-9.807086	-0.286776	0.292084	-0.003130	0.001541	-0.003251
01481	13360917	-9.806612	-0.296410	0.310734	-0.000667	0.003817	-0.000617
01482	13360967	-9.795726	-0.305341	0.301365	-0.005526	0.002833	0.001279
01483	13361017	-9.795043	-0.298821	0.293341	-0.002795	-0.001934	-0.001156
01484	13361067	-9.811852	-0.279255	0.315514	-0.002754	-0.002128	-0.001574
01485	13361117	-9.795732	-0.278695	0.287262	-0.004213	0.000327	-0.004125
01486	13361167	-9.790422	-0.305938	0.291358	-0.003431	-0.001203	-0.002883
01487	13361217	-9.788572	-0.290057	0.306573	-0.005186	0.003828	-0.003236
01488	13361267	-9.804578	-0.279084	0.293687	-0.006538	0.003193	-0.003555
01489	13361317	-9.801696	-0.291149	0.313898	-0.006428	0.000816	0.000151
01490	13361367	-9.798478	-0.293760	0.299953	-0.001983	0.001761	-0.000884
01491	13361417	-9.811383	-0.274203	0.305503	-0.004034	0.001849	-0.002669
01492	13361467	-9.804409	-0.292829	0.293300	-0.002867	0.001290	-0.003993
01493	13361517	-9.837086	-0.280566	0.315474	-0.003336	0.000924	-0.003829
01494	13361567	-9.808938	-0.279066	0.305554	-0.003485	-0.000334	-0.001752
01495	13361617	-9.820665	-0.273975	0.304176	-0.005800	0.000112	-0.001523
01496	13361667	-9.809009	-0.290577	0.301000	-0.002714	0.000717	-0.001844
01497	13361717	-9.792269	-0.295320	0.299659	-0.007375	0.001603	-0.000101
01498	13361767	-9.791202	-0.301820	0.293911	-0.009249	0.002154	0.001351
01499	13361817	-9.810143	-0.280861	0.310769	-0.005268	0.002509	-0.001318
01500	13361867	-9.820349	-0.282528	0.268843	-0.002543	0.002100	-0.004337
01501	13361917	-9.811281	-0.293032	0.289197	-0.006896	0.002517	0.000194
01502	13361967	-9.814232	-0.289004	0.295223	-0.004980	0.003578	-0.003014
01503	13362017	-9.796195	-0.308611	0.307166	-0.003945	-0.000086	-0.003997
01504	13362067	-9.799952	-0.288981	0.297146	-0.004184	-0.000376	-0.000116
01505	13362117	-9.809283	-0.299133	0.284910	-0.004995	0.001000	-0.001293
01506	13362167	-9.798974	-0.286955	0.288609	-0.003204	0.004262	0.000609
01507	13362217	-9.803762	-0.287855	0.295222	-0.003908	0.000081	-0.000183
01508	13362267	-9.811645	-0.281853	0.287169	-0.004482	-0.002086	-0.000319
01509	13362317	-9.814640	-0.279986	0.304623	-0.003680	0.000124	0.002287
01510	13362367	-9.794827	-0.295928	0.290771	-0.006346	0.002429	0.000573
01511	13362417	-9.818239	-0.268912	0.286118	-0.004780	0.003424	-0.001122
01512	13362467	-9.786431	-0.294699	0.277650	-0.002775	0.000522	-0.001335
01513	13362517	-9.787080	-0.284941	0.286843	-0.004335	0.003497	0.000189
01514	13362567	-9.811896	-0.284134	0.293624	-0.008552	0.000226	-0.000935
01515	13362617	-9.788723	-0.291218	0.295031	-0.005747	0.006697	-0.000335
01516	13362667	-9.800702	-0.287231	0.299490	-0.004344	0.000518	-0.003836
01517	13362717	-9.796110	-0.278935	0.311719	-0.002403	0.001014	-0.000533
01518	13362767	-9.783940	-0.292632	0.294872	-0.006890	0.000021	-0.003063
01519	13362817	-9.820969	-0.287425	0.304175	-0.003796	0.000534	-0.000978
01520	13362867	-9.808375	-0.288173	0.308926	-0.007304	0.000050	-0.002927
01521	13362917	-9.800753	-0.282443	0.297582	-0.005016	0.001507	-0.003923
01522	13362967	-9.792064	-0.297675	0.308830	-0.000669	-0.000315	-0.001832
01523	13363017	-9.802157	-0.280220	0.288692	-0.004360	0.001908	-0.003725
01524	13363067	-9.822880	-0.287770	0.304897	-0.004768	0.001742	-0.002730
01525	13363117	-9.816480	-0.275050	0.284183	-0.005034	0.002157	-0.003020
01526	13363167	-9.815630	-0.275679	0.302442	-0.003497	0.000317	0.000656
01527	13363217	-9.789345	-0.298984	0.296524	-0.004293	0.002339	0.002654
01528	13363267	-9.822104	-0.294967	0.309395	-0.007240	0.002185	-0.002083
01529	13363317	-9.783894	-0.300281	0.303086	-0.001596	-0.001328	-0.000774
01530	13363367	-9.799504	-0.285583	0.295588	-0.007884	0.003102	-0.004736
01531	13363417	-9.810926	-0.266578	0.292817	-0.007337	0.000985	-0.002827
01532	13363467	-9.825829	-0.276735	0.297231	-0.003914	0.001211	-0.000973
01533	13363517	-9.816303	-0.281086	0.306332	-0.004039	-0.000116	-0.002646
01534	13363567	-9.799786	-0.294698	0.280941	-0.005166	0.004548	0.000006
01535	13363617	-9.810542	-0.284488	0.267699	-0.007506	0.000367	-0.003151
01536	13363667	-9.800138	-0.277930	0.305072	-0.002898	-0.000709	-0.000893
01537	13363717	-9.812967	-0.297294	0.300755	-0.005363	-0.000527	-0.000501
01538	13363767	-9.801060	-0.288271	0.281542	-0.005419	0.001445	0.000374
01539	13363817	-9.809095	-0.289173	0.274029	-0.003559	0.004517	0.002442
01540	13363867	-9.798580	-0.277374	0.282704	-0.007617	0.001950	-0.000482
01541	13363917	-9.815634	-0.293962	0.301093	-0.004807	-0.001966	-0.000828
01542	13363967	-9.801813	-0.286486	0.284951	-0.000652	-0.001898	-0.000972
01543	13364017	-9.794174	-0.295483	0.299014	-0.002147	-0.000342	-0.004387
01544	13364067	-9.791047	-0.296971	0.298466	-0.004689	0.002488	-0.000808
01545	13364117	-9.806276	-0.298412	0.299152	-0.007471	-0.003021	-0.003328
01546	13364167	-9.810057	-0.295388	0.325627	-0.007126	0.001773	0.001506
01547	13364217	-9.791625	-0.296060	0.312660	-0.004414	0.000716	-0.002132
01548	13364267	-9.804499	-0.299329	0.283661	-0.004230	0.003008	-0.002696
01549	13364317	-9.794440	-0.317177	0.309986	-0.005194	0.002121	-0.002828
01550	13364367	-9.812449	-0.303557	0.306006	-0.003225	0.002576	-0.002988
01551	13364417	-9.816570	-0.289268	0.327866	-0.004591	0.001391	-0.002768
01552	13364467	-9.795959	-0.289435	0.307140	-0.003865	0.000335	-0.003866
01553	13364517	-9.806522	-0.267366	0.314084	-0.003747	0.003853	-0.004584
01554	13364567	-9.807943	-0.297619	0.297104	-0.005727	0.003021	-0.001377
01555	13364617	-9.807299	-0.287308	0.288490	-0.005618	0.000670	0.001525
01556	13364667	-9.806971	-0.302910	0.305091	-0.004780	-0.001499	-0.008391
01557	13364717	-9.809059	-0.286380	0.300678	-0.002221	0.003273	-0.003178
01558	13364767	-9.812446	-0.286030	0.308212	-0.004229	-0.000056	-0.001846
01559	13364817	-9.806201	-0.289214	0.306963	-0.008146	0.000686	0.000539
01560	13364867	-9.808361	-0.311913	0.277709	-0.006784	0.000706	-0.003439
01561	13364917	-9.809656	-0.282524	0.312477	-0.000960	-0.000253	-0.002013
01562	13364967	-9.817015	-0.277123	0.297222	-0.002574	-0.000572	-0.000157
01563	13365017	-9.807162	-0.276541	0.282553	-0.004241	0.001433	-0.001390
01564	13365067	-9.793653	-0.293492	0.288969	-0.005136	-0.001582	0.000709
01565	13365117	-9.810936	-0.283037	0.289503	-0.002042	0.000724	-0.000372
01566	13365167	-9.801426	-0.283795	0.293813	-0.002689	-0.000289	-0.002780
01567	13365217	-9.801723	-0.294859	0.286337	-0.002871	0.000547	-0.002490
01568	13365267	-9.801671	-0.265274	0.295909	-0.003117	0.000226	-0.001270
01569	13365317	-9.804337	-0.276503	0.288205	-0.004717	0.002722	0.002754
01570	13365367	-9.787486	-0.297449	0.301353	-0.003672	0.001632	-0.001135
01571	13365417	-9.803363	-0.279046	0.289777	-0.004335	-0.002706	-0.002023
01572	13365467	-9.794693	-0.283235	0.281467	-0.003549	0.000865	-0.000241
01573	13365517	-9.802329	-0.282177	0.281998	-0.005641	0.002177	-0.001671
01574	13365567	-9.804259	-0.275874	0.273606	-0.000878	0.001331	0.000302
01575	13365617	-9.800918	-0.268855	0.296810	-0.004835	0.001967	-0.002608
01576	13365667	-9.813652	-0.281276	0.301421	-0.003716	0.003821	-0.005927
01577	13365717	-9.811563	-0.271241	0.289803	-0.005865	-0.001989	-0.001530
01578	13365767	-9.791875	-0.293344	0.309269	-0.004778	0.000099	-0.001238
01579	13365817	-9.797311	-0.275283	0.304303	-0.001842	0.000705	0.001675
01580	13365867	-9.812078	-0.281651	0.317002	-0.003466	0.002186	-0.001582
01581	13365917	-9.801154	-0.287315	0.295414	-0.003208	0.001358	0.000852
01582	13365967	-9.795880	-0.292291	0.299409	-0.003782	0.001987	-0.001454
01583	13366017	-9.807870	-0.288224	0.304998	-0.002959	0.002653	0.001788
01584	13366067	-9.801283	-0.278176	0.298836	-0.006540	-0.000641	-0.000853
01585	13366117	-9.796203	-0.283417	0.295126	-0.004302	0.001528	0.000016
01586	13366167	-9.807899	-0.271669	0.315063	-0.004783	0.001385	-0.001902
01587	13366217	-9.802214	-0.285451	0.308914	-0.004417	-0.002255	-0.001347
01588	13366267	-9.807986	-0.278211	0.303637	-0.002353	-0.000336	0.001738
01589	13366317	-9.819777	-0.271182	0.308460	-0.003401	0.000092	-0.001748
01590	13366367	-9.805643	-0.296440	0.308344	-0.004233	0.002071	-0.003023
01591	13366417	-9.821480	-0.271002	0.314666	-0.004245	0.001624	-0.000781
01592	13366467	-9.800197	-0.289081	0.297528	-0.006217	0.003136	-0.002337
01593	13366517	-9.799733	-0.289320	0.299980	-0.004948	-0.000487	-0.001018
01594	13366567	-9.803073	-0.295126	0.314475	-0.004206	-0.001466	0.002378
01595	13366617	-9.799516	-0.287560	0.301064	-0.006270	0.003678	-0.004993
01596	13366667	-9.801417	-0.287006	0.298763	-0.005442	0.001661	-0.005009
01597	13366717	-9.804728	-0.285865	0.292609	-0.004689	-0.000316	0.001135
01598	13366767	-9.782585	-0.331042	0.307518	-0.006521	0.002287	-0.005357
01599	13366817	-9.782767	-0.300756	0.276649	-0.002624	0.002044	0.000627
01600	13366867	-9.799442	-0.286249	0.285789	-0.004387	0.002009	-0.002414
01601	13366917	-9.788350	-0.300209	0.293078	-0.002550	-0.001545	-0.000676
01602	13366967	-9.797275	-0.277026	0.301879	-0.004140	-0.000027	-0.004286
01603	13367017	-9.789886	-0.311325	0.293296	-0.000715	-0.000829	0.000734
01604	13367067	-9.802440	-0.298154	0.294975	-0.000267	-0.001283	-0.005265
01605	13367117	-9.806607	-0.287335	0.292127	-0.002994	-0.000580	-0.001151
01606	13367167	-9.797939	-0.293615	0.288937	-0.001151	0.000968	0.000168
01607	13367217	-9.807560	-0.290042	0.297144	-0.003557	-0.000106	-0.000854
01608	13367267	-9.800113	-0.292444	0.290832	-0.001426	0.000580	0.001416
01609	13367317	-9.812033	-0.292203	0.292593	-0.003019	0.001295	-0.000974
01610	13367367	-9.818031	-0.276121	0.306092	-0.000178	0.000243	-0.002753
01611	13367417	-9.814599	-0.282488	0.303399	-0.001574	0.001054	-0.002679
01612	13367467	-9.796843	-0.298117	0.313634	-0.002559	0.000552	-0.004283
01613	13367517	-9.798075	-0.271761	0.304779	-0.003529	0.001152	-0.001617
01614	13367567	-9.811433	-0.267329	0.300457	-0.005046	0.002839	-0.000225
01615	13367617	-9.799878	-0.279905	0.305435	-0.005005	0.002384	-0.001544
01616	13367667	-9.797961	-0.276038	0.295564	-0.005712	0.003140	-0.005482
01617	13367717	-9.806970	-0.303025	0.305324	-0.008549	0.001029	-0.001701
01618	13367767	-9.800961	-0.282774	0.293669	-0.001400	0.005004	0.001279
01619	13367817	-9.810841	-0.285478	0.279000	-0.008676	-0.001837	0.001458
01620	13367867	-9.820597	-0.260709	0.305105	-0.003631	0.000244	-0.002488
01621	13367917	-9.814116	-0.282867	0.301628	-0.004110	0.004305	-0.002560
01622	13367967	-9.797547	-0.280464	0.315097	-0.004437	-0.000410	-0.000533
01623	13368017	-9.802958	-0.272330	0.287665	-0.000309	0.005729	-0.002116
01624	13368067	-9.809711	-0.294540	0.306986	-0.001632	-0.001231	-0.000770
01625	13368117	-9.798838	-0.297497	0.287940	-0.002737	0.003227	-0.003887
01626	13368167	-9.808631	-0.283452	0.303142	-0.002085	0.001182	0.000495
01627	13368217	-9.804480	-0.285085	0.288669	-0.002193	0.004800	0.002755
01628	13368267	-9.791636	-0.294382	0.311426	-0.001583	0.003282	-0.002255
01629	13368317	-9.810129	-0.269160	0.285701	-0.005226	-0.002342	-0.006247
01630	13368367	-9.796188	-0.287155	0.300483	-0.007115	-0.001884	-0.001691
01631	13368417	-9.816131	-0.271369	0.298401	-0.004505	0.000983	0.002453
01632	13368467	-9.791185	-0.283630	0.293876	-0.002744	0.003749	-0.000005
01633	13368517	-9.795859	-0.289355	0.289615	-0.005259	0.003123	-0.003462
01634	13368567	-9.777457	-0.294087	0.289232	-0.004526	0.004295	-0.002050
01635	13368617	-9.797933	-0.278832	0.296587	-0.004181	0.002430	-0.002988
01636	13368667	-9.798865	-0.283603	0.303663	-0.006257	-0.002639	0.000261
01637	13368717	-9.792551	-0.290905	0.296899	-0.003736	-0.002666	-0.003243
01638	13368767	-9.797309	-0.304689	0.285401	-0.004069	-0.001124	-0.002237
01639	13368817	-9.806607	-0.295913	0.308564	-0.004693	0.003780	-0.000127
01640	13368867	-9.800596	-0.274386	0.294955	-0.006181	0.000745	-0.004401
01641	13368917	-9.797565	-0.286011	0.290522	-0.006180	0.004275	0.000136
01642	13368967	-9.796169	-0.292313	0.269289	-0.008015	0.000428	0.000025
