PacketCounter	SampleTimeFine	Acc_X	Acc_Y	Acc_Z	Gyr_X	Gyr_Y	Gyr_Z
00001	13448267	9.860691	0.367865	0.266536	-0.006165	0.001921	-0.001058
00002	13448317	9.844704	0.362714	0.282368	-0.000873	-0.000601	-0.002462
00003	13448367	9.815613	0.352933	0.269407	-0.001492	0.003042	0.001408
00004	13448417	9.798801	0.331988	0.295586	-0.003278	0.001747	-0.000995
00005	13448467	9.792781	0.333116	0.265229	-0.002969	0.001913	-0.001349
00006	13448517	9.805086	0.344574	0.255224	-0.004841	-0.000706	-0.001968
00007	13448567	9.780452	0.344231	0.273617	-0.002550	0.000723	-0.002155
00008	13448617	9.800265	0.328899	0.257440	-0.003794	-0.000491	-0.002901
00009	13448667	9.808782	0.345033	0.274228	-0.003367	0.001455	-0.000521
00010	13448717	9.826164	0.327485	0.270561	-0.004476	0.003146	-0.001375
00011	13448767	9.822996	0.347536	0.279568	-0.004172	-0.001697	-0.002585
00012	13448817	9.812093	0.345987	0.274895	-0.007856	0.000797	0.000516
00013	13448867	9.836843	0.332681	0.264477	-0.002831	-0.000177	0.001200
00014	13448917	9.810542	0.364032	0.258340	-0.007070	0.000033	-0.000064
00015	13448967	9.826105	0.339790	0.255170	-0.002530	-0.000825	-0.000405
00016	13449017	9.799084	0.348038	0.255981	-0.002839	-0.000085	0.000148
00017	13449067	9.785429	0.338009	0.250844	-0.004621	0.001528	-0.000958
00018	13449117	9.784950	0.353011	0.259888	-0.002325	0.000694	-0.002030
00019	13449167	9.795950	0.352454	0.252582	-0.004619	-0.002837	-0.004769
00020	13449217	9.810390	0.336307	0.261264	-0.006753	0.002066	-0.004449
00021	13449267	9.824007	0.334186	0.258485	-0.002994	-0.000052	0.001585
00022	13449317	9.840051	0.341978	0.267133	-0.001751	0.003002	0.000414
00023	13449367	9.823580	0.365290	0.265764	-0.004604	0.001949	-0.002565
00024	13449417	9.820238	0.378078	0.278442	-0.005944	-0.000040	-0.000554
00025	13449467	9.815141	0.358826	0.256642	-0.000983	0.001016	0.001492
00026	13449517	9.789889	0.357769	0.260482	-0.002149	0.004482	-0.000793
00027	13449567	9.789376	0.340922	0.260950	-0.002664	0.003535	0.000167
00028	13449617	9.801052	0.342214	0.258664	-0.002891	0.001726	0.002400
00029	13449667	9.814295	0.349256	0.258313	-0.006269	-0.000559	0.003902
00030	13449717	9.813499	0.355750	0.258854	-0.005694	0.001090	-0.001445
00031	13449767	9.801369	0.349174	0.268982	-0.006871	0.002645	-0.003608
00032	13449817	9.811381	0.363005	0.278252	-0.002637	0.002857	0.001092
00033	13449867	9.820498	0.350389	0.292927	-0.004727	0.003999	-0.002570
00034	13449917	9.825681	0.360794	0.280804	-0.003908	0.000360	-0.001554
00035	13449967	9.821365	0.361594	0.284412	-0.002518	-0.000068	0.000751
00036	13450017	9.813013	0.372115	0.265536	-0.005581	0.001485	-0.004812
00037	13450067	9.809662	0.364042	0.284296	-0.005634	0.001561	0.001694
00038	13450117	9.801552	0.340968	0.255480	-0.001450	-0.000636	-0.000570
00039	13450167	9.803840	0.362659	0.266776	-0.002842	0.000958	-0.002193
00040	13450217	9.793954	0.334704	0.265627	-0.003157	0.001189	0.002489
00041	13450267	9.764093	0.347398	0.254354	-0.003261	0.002374	-0.000038
00042	13450317	9.802264	0.338713	0.260070	-0.005509	0.000658	0.000923
00043	13450367	9.804564	0.345674	0.260092	-0.003619	0.002396	-0.001189
00044	13450417	9.810296	0.363735	0.260055	-0.007168	0.001464	0.000642
00045	13450467	9.814986	0.345908	0.269126	-0.004341	-0.000203	-0.002613
00046	13450517	9.819098	0.354878	0.239386	-0.003056	0.002122	0.003000
00047	13450567	9.819053	0.330983	0.257874	-0.002474	0.001480	-0.001615
00048	13450617	9.798720	0.349141	0.274479	-0.000515	-0.000713	-0.001181
00049	13450667	9.796070	0.357577	0.261809	-0.005598	0.000396	0.000598
00050	13450717	9.811699	0.331436	0.252159	-0.000873	0.003673	-0.001065
00051	13450767	9.809439	0.337217	0.260252	-0.005842	-0.000259	-0.001807
00052	13450817	9.804641	0.347260	0.244729	-0.004937	0.000570	-0.000008
00053	13450867	9.804444	0.343013	0.245536	-0.004025	0.003264	0.000260
00054	13450917	9.806777	0.343940	0.252630	-0.003500	0.000425	-0.001871
00055	13450967	9.820969	0.349529	0.256589	-0.001632	-0.000990	-0.001854
00056	13451017	9.840533	0.338383	0.273814	-0.006617	0.000788	-0.003758
00057	13451067	9.802202	0.359546	0.268736	-0.002146	0.002323	-0.001609
00058	13451117	9.819498	0.353961	0.254748	-0.003718	0.002620	0.001247
00059	13451167	9.800092	0.360758	0.259896	-0.004353	0.002518	0.000548
00060	13451217	9.797592	0.367841	0.264256	-0.008061	0.003320	-0.001043
00061	13451267	9.796522	0.356094	0.269411	-0.001673	-0.001538	-0.001217
00062	13451317	9.792909	0.358981	0.270483	-0.003886	0.002746	-0.001828
00063	13451367	9.801146	0.368807	0.265858	-0.006504	0.002568	-0.002429
00064	13451417	9.798206	0.352532	0.273745	-0.000092	-0.000130	-0.003003
00065	13451467	9.820848	0.366580	0.280813	-0.005031	0.002234	-0.005032
00066	13451517	9.801025	0.354781	0.275969	-0.004503	0.002421	0.001443
00067	13451567	9.822833	0.344276	0.274879	-0.003662	0.002749	-0.001413
00068	13451617	9.813403	0.357762	0.270308	-0.001624	0.000945	-0.002774
00069	13451667	9.813921	0.359334	0.258509	-0.005037	-0.002311	-0.000859
00070	13451717	9.796481	0.354059	0.279557	-0.005034	0.001694	-0.001252
00071	13451767	9.828418	0.341018	0.263577	-0.001419	0.000264	-0.004318
00072	13451817	9.818127	0.347450	0.259233	-0.001967	-0.000153	0.000780
00073	13451867	9.798475	0.358912	0.254972	-0.006218	-0.001457	-0.001168
00074	13451917	9.811648	0.351797	0.256941	-0.006456	0.000050	-0.001963
00075	13451967	9.813803	0.352985	0.254031	-0.002785	0.000219	-0.000980
00076	13452017	9.816491	0.346860	0.255221	-0.003440	0.001787	-0.001867
00077	13452067	9.809997	0.346820	0.264904	-0.002057	0.003649	-0.001795
00078	13452117	9.818580	0.359365	0.276005	-0.004343	-0.000875	0.000683
00079	13452167	9.820049	0.330384	0.251642	-0.003218	-0.000311	-0.002073
00080	13452217	9.809530	0.346053	0.264313	-0.004061	-0.001800	0.001993
00081	13452267	9.799663	0.361618	0.250910	-0.002439	-0.003715	-0.000391
00082	13452317	9.817715	0.318467	0.267562	-0.004139	0.003677	-0.002660
00083	13452367	9.783312	0.355010	0.251770	-0.004153	0.000164	0.000377
00084	13452417	9.802894	0.341569	0.269540	-0.001854	0.005200	-0.003646
00085	13452467	9.791587	0.355923	0.258064	-0.005569	0.002658	0.001030
00086	13452517	9.815629	0.337280	0.260157	-0.001401	-0.002152	-0.001927
00087	13452567	9.826604	0.321945	0.248444	-0.005268	0.001916	0.000156
00088	13452617	9.830152	0.345558	0.243353	-0.006127	-0.001492	-0.001654
00089	13452667	9.827597	0.335939	0.252252	-0.003734	-0.000352	-0.003225
00090	13452717	9.806424	0.361105	0.275884	-0.006931	0.000920	-0.001381
00091	13452767	9.820356	0.353597	0.270701	-0.004405	-0.002433	-0.003906
00092	13452817	9.814452	0.351438	0.267458	-0.005415	0.001295	-0.004268
00093	13452867	9.802530	0.345582	0.282021	-0.003501	-0.003706	-0.002216
00094	13452917	9.798557	0.352265	0.255338	-0.002719	0.001284	-0.000363
00095	13452967	9.794899	0.356458	0.261764	-0.007264	-0.000831	-0.002063
00096	13453017	9.807643	0.347632	0.259123	-0.003000	-0.000916	0.000039
00097	13453067	9.813849	0.352096	0.286351	-0.002264	-0.000326	-0.003384
00098	13453117	9.806624	0.349343	0.267267	-0.002086	0.001554	-0.000362
00099	13453167	9.809848	0.360808	0.261681	-0.002208	-0.000579	0.000423
00100	13453217	9.819345	0.353326	0.281540	-0.005635	-0.000673	-0.001103
00101	13453267	9.814748	0.366518	0.266653	-0.002753	-0.001783	0.000130
00102	13453317	9.824603	0.359640	0.265237	-0.007597	0.002710	-0.002684
00103	13453367	9.806577	0.352943	0.266980	-0.001694	0.001203	-0.001488
00104	13453417	9.794447	0.357579	0.254914	-0.004744	0.002272	-0.004197
00105	13453467	9.804043	0.348618	0.261716	-0.002865	0.001255	0.002556
00106	13453517	9.798037	0.351688	0.264026	-0.009274	0.003167	-0.002003
00107	13453567	9.798996	0.358308	0.250032	-0.000547	0.001418	-0.000717
00108	13453617	9.802579	0.355921	0.252615	-0.005947	-0.000771	0.000725
00109	13453667	9.809803	0.351539	0.248193	-0.006216	0.005169	0.003639
00110	13453717	9.813442	0.358227	0.262983	-0.001307	0.003445	0.001247
00111	13453767	9.817011	0.345754	0.250084	-0.002420	-0.003526	-0.002698
00112	13453817	9.829871	0.345941	0.250858	-0.003332	0.001303	-0.001552
00113	13453867	9.821601	0.356888	0.255176	-0.002968	0.001957	-0.001290
00114	13453917	9.796257	0.362110	0.261106	-0.002376	0.002906	0.000639
00115	13453967	9.816126	0.336068	0.259136	-0.007728	0.002874	0.000008
00116	13454017	9.815972	0.338799	0.277795	-0.004670	0.000852	-0.006066
00117	13454067	9.819468	0.350022	0.267753	-0.003774	0.003361	-0.001827
00118	13454117	9.805946	0.350071	0.259129	-0.002930	0.000497	-0.004502
00119	13454167	9.791609	0.371318	0.262472	-0.003859	-0.000223	-0.001453
00120	13454217	9.805958	0.345118	0.266753	-0.001918	-0.000801	-0.000793
00121	13454267	9.808348	0.339069	0.277612	-0.003520	0.002366	-0.000584
00122	13454317	9.823740	0.354368	0.261394	-0.001644	0.000431	-0.001495
00123	13454367	9.806534	0.334769	0.271604	-0.005170	0.002051	-0.000034
00124	13454417	9.820498	0.333963	0.249463	-0.006227	0.001799	-0.003013
00125	13454467	9.799060	0.341177	0.273510	-0.003710	-0.000189	-0.004635
00126	13454517	9.803693	0.343910	0.250759	-0.004250	0.001030	-0.003120
00127	13454567	9.800906	0.348595	0.268779	-0.005593	0.004201	-0.002422
00128	13454617	9.792738	0.355901	0.264948	-0.001347	0.001503	-0.000013
00129	13454667	9.808646	0.342890	0.259887	-0.005370	0.003073	-0.003169
00130	13454717	9.807159	0.353593	0.287205	-0.000800	0.003384	0.000217
00131	13454767	9.832152	0.348110	0.261653	-0.002287	0.002906	-0.000232
00132	13454817	9.819800	0.326644	0.260437	-0.001911	0.000877	-0.001458
00133	13454867	9.820609	0.365445	0.282946	-0.003431	-0.001442	-0.000409
00134	13454917	9.827507	0.338277	0.262355	-0.006209	0.001518	0.001310
00135	13454967	9.821800	0.339267	0.259324	-0.004160	0.002190	-0.002215
00136	13455017	9.804331	0.361536	0.266364	-0.004008	0.002415	-0.003655
00137	13455067	9.812625	0.338733	0.280686	-0.006539	0.003997	0.001005
00138	13455117	9.789851	0.361894	0.258216	-0.008526	-0.000112	-0.000385
00139	13455167	9.804689	0.362748	0.244517	-0.000876	0.001670	-0.001327
00140	13455217	9.810221	0.330096	0.262959	-0.001854	0.002038	-0.002607
00141	13455267	9.803538	0.348291	0.266795	-0.005380	0.000132	-0.005302
00142	13455317	9.818218	0.339197	0.260507	-0.004463	0.001900	-0.000452
00143	13455367	9.810981	0.347568	0.258664	-0.003385	0.001680	-0.006229
00144	13455417	9.827371	0.349723	0.261667	-0.007073	0.002367	-0.000029
00145	13455467	9.818270	0.373828	0.259574	-0.003567	0.001752	-0.001320
00146	13455517	9.816641	0.349774	0.263058	-0.005566	-0.002833	0.000004
00147	13455567	9.816768	0.345779	0.250930	-0.004677	0.001374	-0.001866
00148	13455617	9.782963	0.370788	0.275262	-0.003370	-0.001308	0.000138
00149	13455667	9.799191	0.354691	0.263409	-0.007537	0.000142	0.003489
00150	13455717	9.810981	0.333635	0.248297	-0.003511	-0.000187	-0.001749
00151	13455767	9.802043	0.353202	0.267956	-0.003055	-0.000436	-0.002937
00152	13455817	9.811993	0.346298	0.252587	-0.005266	-0.000015	0.000947
00153	13455867	9.813408	0.344746	0.255931	-0.001997	-0.001614	-0.003333
00154	13455917	9.806924	0.353931	0.248119	-0.003632	0.001818	-0.001386
00155	13455967	9.819338	0.329642	0.252588	-0.005747	0.000677	-0.003278
00156	13456017	9.815851	0.345676	0.282995	-0.002155	-0.000417	-0.000247
00157	13456067	9.806252	0.348705	0.251134	-0.003456	-0.002091	-0.003201
00158	13456117	9.813881	0.346177	0.255076	-0.002537	0.002411	-0.004175
00159	13456167	9.806003	0.343556	0.261999	-0.003179	0.000694	-0.000813
00160	13456217	9.820095	0.331805	0.280969	-0.004885	-0.002405	-0.002749
00161	13456267	9.807782	0.326307	0.279482	-0.002919	-0.000892	-0.005121
00162	13456317	9.815277	0.318515	0.277797	-0.005381	0.003528	-0.002271
00163	13456367	9.809152	0.345449	0.250542	-0.000785	0.003666	-0.003917
00164	13456417	9.821777	0.351836	0.275822	-0.006217	0.000510	-0.001643
00165	13456467	9.817968	0.343637	0.253597	-0.003252	0.003753	-0.003684
00166	13456517	9.808276	0.351127	0.265150	-0.005057	0.003338	-0.001244
00167	13456567	9.817274	0.341864	0.253014	-0.007024	-0.001112	0.000338
00168	13456617	9.814510	0.343938	0.272791	-0.008279	0.003086	-0.002136
00169	13456667	9.812924	0.343871	0.259347	-0.005590	0.002038	-0.001186
00170	13456717	9.800765	0.357069	0.272850	-0.004339	0.001928	-0.002347
00171	13456767	9.808103	0.348044	0.260312	-0.005845	-0.000060	-0.000013
00172	13456817	9.803675	0.363107	0.252707	-0.004984	0.001209	-0.001352
00173	13456867	9.786148	0.355198	0.254309	-0.002417	-0.001199	0.000777
00174	13456917	9.815631	0.353064	0.265318	-0.002728	-0.000557	-0.001882
00175	13456967	9.817977	0.333673	0.233424	-0.003871	0.001100	-0.002223
00176	13457017	9.799325	0.364326	0.261268	-0.005956	-0.000355	-0.000043
00177	13457067	9.812439	0.339463	0.271011	-0.003482	0.000106	-0.001618
00178	13457117	9.806141	0.355829	0.254557	-0.004730	-0.000277	-0.004534
00179	13457167	9.825355	0.343639	0.252831	-0.002636	0.003904	0.000642
00180	13457217	9.810967	0.369124	0.256462	-0.004973	0.001626	-0.003466
00181	13457267	9.815860	0.343188	0.248772	-0.000332	0.002483	-0.003280
00182	13457317	9.783063	0.353276	0.255912	-0.002701	0.001739	-0.000776
00183	13457367	9.812122	0.338868	0.246047	-0.002602	-0.000492	-0.001273
00184	13457417	9.796648	0.351123	0.258613	-0.005449	-0.002076	0.004626
00185	13457467	9.791117	0.363948	0.279587	-0.006471	0.001705	-0.000383
00186	13457517	9.808133	0.362740	0.264798	-0.007244	-0.001544	-0.002387
00187	13457567	9.794187	0.362380	0.249158	-0.005427	0.002878	-0.002111
00188	13457617	9.815207	0.363566	0.275125	-0.004944	0.000894	0.000441
00189	13457667	9.819303	0.341885	0.271910	-0.001813	-0.002187	-0.000836
00190	13457717	9.801796	0.348871	0.276409	-0.001602	-0.000504	0.001198
00191	13457767	9.813961	0.338264	0.257451	-0.001699	0.002237	-0.001486
00192	13457817	9.795230	0.331544	0.257462	-0.000799	-0.001714	0.001536
00193	13457867	9.795370	0.349060	0.277045	-0.001600	-0.001732	-0.000156
00194	13457917	9.800822	0.335285	0.270674	-0.002600	0.000444	-0.002071
00195	13457967	9.812614	0.337332	0.245732	0.000996	0.001696	-0.005628
00196	13458017	9.815149	0.331104	0.273226	-0.002129	0.000809	-0.001266
00197	13458067	9.812145	0.342820	0.233176	-0.002337	0.000161	-0.000632
00198	13458117	9.806219	0.336838	0.281410	-0.000083	0.000878	-0.000951
00199	13458167	9.814134	0.348628	0.247449	-0.001255	0.004601	-0.001247
00200	13458217	9.831553	0.344153	0.289608	-0.005867	-0.000522	-0.002643
00201	13458267	9.808144	0.357485	0.273711	-0.003132	0.000685	-0.005941
00202	13458317	9.806300	0.358710	0.261712	-0.004382	0.001318	-0.001511
00203	13458367	9.805913	0.352340	0.259159	-0.007164	0.001175	-0.000869
00204	13458417	9.804375	0.339565	0.264869	-0.002244	0.000685	0.001848
00205	13458467	9.802747	0.353905	0.268019	-0.006020	0.002316	-0.002629
00206	13458517	9.822509	0.337275	0.264905	-0.000768	-0.002175	-0.002570
00207	13458567	9.794083	0.356935	0.276274	-0.005180	0.004439	-0.000500
00208	13458617	9.803512	0.341151	0.247128	-0.005751	-0.001001	-0.001846
00209	13458667	9.804969	0.350181	0.262769	-0.005751	0.001939	-0.003142
00210	13458717	9.795361	0.348972	0.279304	-0.004248	0.001165	0.000697
00211	13458767	9.818480	0.364374	0.244907	-0.003284	0.002815	-0.003817
00212	13458817	9.815832	0.345528	0.248463	0.000392	-0.001341	-0.002918
00213	13458867	9.821206	0.356386	0.242893	-0.006136	-0.002432	-0.004093
00214	13458917	9.811932	0.329482	0.257237	-0.002182	0.002453	-0.002476
00215	13458967	9.801662	0.332680	0.255075	-0.005957	0.002551	-0.000315
00216	13459017	9.800265	0.343878	0.266002	-0.002511	0.006935	-0.000656
00217	13459067	9.808655	0.344897	0.255316	-0.001538	0.003072	-0.004366
00218	13459117	9.807531	0.358065	0.256434	-0.003620	-0.001800	-0.000893
00219	13459167	9.806088	0.343206	0.250220	-0.004087	-0.001223	-0.000182
00220	13459217	9.816051	0.367614	0.246531	-0.004605	-0.001915	-0.001241
00221	13459267	9.816011	0.339257	0.271575	-0.003430	0.001498	-0.001168
00222	13459317	9.803823	0.347623	0.260903	-0.005824	0.004257	-0.003896
00223	13459367	9.813641	0.346160	0.255478	-0.005663	0.001000	-0.003660
00224	13459417	9.825718	0.346781	0.266020	-0.002590	0.003385	-0.001123
00225	13459467	9.823277	0.347077	0.273674	-0.003374	0.001792	-0.000329
00226	13459517	9.803906	0.357749	0.266052	-0.001710	0.000359	-0.003771
00227	13459567	9.801032	0.355441	0.272862	-0.003764	0.004041	-0.001053
00228	13459617	9.803025	0.346806	0.275841	-0.001161	-0.001495	-0.000322
00229	13459667	9.818852	0.349239	0.253426	-0.006796	-0.004566	-0.000995
00230	13459717	9.819888	0.323930	0.252584	-0.005800	0.000422	-0.001069
00231	13459767	9.808961	0.348559	0.275715	-0.004172	0.003809	-0.001725
00232	13459817	9.804642	0.349426	0.279483	-0.003513	-0.000025	-0.002548
00233	13459867	9.810034	0.342833	0.266986	-0.001826	-0.000723	-0.001317
00234	13459917	9.787931	0.341860	0.262157	-0.007548	0.005321	-0.002013
00235	13459967	9.813700	0.345974	0.245662	-0.001538	0.000394	0.000598
00236	13460017	9.821580	0.337535	0.258998	-0.003143	-0.000537	0.001108
00237	13460067	9.812585	0.342380	0.240100	-0.004631	-0.001479	-0.004305
00238	13460117	9.817821	0.351453	0.262120	-0.003999	0.000224	0.001277
00239	13460167	9.814390	0.342901	0.256730	-0.004628	0.003181	0.001295
00240	13460217	9.797115	0.357612	0.246767	-0.004753	0.002886	0.000235
00241	13460267	9.818010	0.340783	0.253224	-0.009115	-0.001103	-0.002178
00242	13460317	9.827353	0.359293	0.244898	-0.004541	0.001045	-0.001825
00243	13460367	9.815249	0.349191	0.257615	-0.003660	-0.000586	-0.002286
00244	13460417	9.799492	0.352633	0.257729	-0.005775	0.001110	-0.006946
00245	13460467	9.815720	0.357397	0.280435	0.000013	0.001805	-0.001608
00246	13460517	9.809027	0.356364	0.249852	-0.005411	0.005420	-0.001669
00247	13460567	9.820573	0.356904	0.268140	-0.003225	0.000940	-0.001252
00248	13460617	9.804311	0.347778	0.258672	-0.006793	0.000458	-0.001535
00249	13460667	9.819533	0.374407	0.285060	-0.005729	0.006680	-0.000092
00250	13460717	9.794782	0.361475	0.231937	-0.003208	0.004325	-0.004213
00251	13460767	9.827726	0.337955	0.266866	-0.004580	-0.000495	0.001501
00252	13460817	9.812238	0.360719	0.259872	-0.004046	0.003666	-0.002263
00253	13460867	9.802214	0.345493	0.256583	-0.002275	0.003411	-0.000663
00254	13460917	9.825630	0.340091	0.254316	-0.001180	0.004207	-0.001337
00255	13460967	9.811778	0.345514	0.288537	-0.000316	0.000160	0.001239
00256	13461017	9.833487	0.352570	0.267593	-0.006261	-0.000145	-0.001252
00257	13461067	9.812191	0.336711	0.278113	-0.006517	0.003884	-0.001677
00258	13461117	9.821595	0.354153	0.261735	-0.003945	0.003608	-0.001685
00259	13461167	9.809846	0.337439	0.270649	-0.002551	0.003152	0.000428
00260	13461217	9.806317	0.360052	0.256070	-0.007045	0.003356	-0.003088
00261	13461267	9.833290	0.338713	0.287988	-0.005327	0.001714	-0.000636
00262	13461317	9.798442	0.359566	0.259608	-0.003448	0.001035	-0.000735
00263	13461367	9.807367	0.349954	0.259815	-0.005560	-0.000130	-0.000543
00264	13461417	9.805989	0.338798	0.274521	-0.004961	0.002302	0.000234
00265	13461467	9.826260	0.334226	0.279160	-0.001783	0.001936	0.000545
00266	13461517	9.805899	0.335740	0.256518	0.000251	0.000426	0.000564
00267	13461567	9.797449	0.360977	0.263788	-0.004564	0.005015	-0.001130
00268	13461617	9.811660	0.332252	0.256960	-0.002225	0.000836	0.001372
00269	13461667	9.821123	0.334615	0.262189	-0.004239	0.000767	0.000639
00270	13461717	9.803732	0.346325	0.278139	-0.004297	0.003667	-0.000913
00271	13461767	9.819286	0.330298	0.259998	-0.004604	0.000651	-0.004581
00272	13461817	9.788849	0.357844	0.274069	-0.003181	0.002488	-0.003643
00273	13461867	9.792117	0.358746	0.282876	-0.003338	0.000455	-0.000898
00274	13461917	9.809709	0.355517	0.256640	-0.005139	-0.000157	-0.000223
00275	13461967	9.807943	0.345825	0.252442	-0.003598	0.001743	-0.000764
00276	13462017	9.818606	0.346277	0.260677	-0.004975	0.001755	-0.000122
00277	13462067	9.812382	0.350731	0.257192	-0.003846	0.001448	-0.000064
00278	13462117	9.820850	0.337100	0.262240	-0.003380	0.002678	-0.003229
00279	13462167	9.814366	0.342221	0.262018	-0.005940	0.002730	-0.003253
00280	13462217	9.812279	0.352240	0.269430	-0.004392	0.001568	0.000839
00281	13462267	9.804073	0.360249	0.271314	-0.001967	0.001609	-0.003078
00282	13462317	9.794210	0.335856	0.260383	-0.001822	0.000898	-0.004330
00283	13462367	9.805946	0.347009	0.264149	0.000263	0.000106	0.000403
00284	13462417	9.795637	0.343146	0.246479	-0.006053	0.001279	-0.002038
00285	13462467	9.807114	0.347247	0.268047	-0.001080	0.003049	-0.000734
00286	13462517	9.825794	0.336219	0.273330	-0.003214	-0.001349	0.000176
00287	13462567	9.798407	0.361240	0.261980	-0.003167	0.000102	-0.001062
00288	13462617	9.826691	0.344404	0.266806	-0.003377	0.004978	-0.001197
00289	13462667	9.824228	0.353529	0.261191	-0.004444	0.001916	-0.003454
00290	13462717	9.823179	0.349412	0.245351	-0.003144	-0.001505	0.000402
00291	13462767	9.817326	0.346111	0.275096	-0.002962	0.000653	-0.001895
00292	13462817	9.802678	0.357392	0.271593	-0.004123	0.001989	-0.002843
00293	13462867	9.809063	0.332303	0.253746	-0.005160	-0.000608	-0.001255
00294	13462917	9.810881	0.339852	0.252159	0.003652	0.001230	0.001233
00295	13462967	9.817752	0.355735	0.264060	-0.006498	-0.000825	-0.001572
00296	13463017	9.808784	0.348795	0.264646	-0.005674	0.002547	-0.001459
00297	13463067	9.815544	0.335851	0.276503	-0.006193	-0.000338	-0.002342
00298	13463117	9.803471	0.359996	0.254529	-0.003684	0.000089	-0.003274
00299	13463167	9.807648	0.342976	0.266723	-0.008448	-0.001697	0.000413
00300	13463217	9.808888	0.374242	0.273893	-0.004524	-0.002436	-0.000434
00301	13463267	9.825342	0.356026	0.268817	-0.002337	0.001049	-0.003501
00302	13463317	9.808084	0.346848	0.266443	-0.006187	-0.003665	-0.002102
00303	13463367	9.788775	0.368879	0.264497	-0.001482	0.002585	-0.001311
00304	13463417	9.815423	0.335668	0.257853	-0.004770	-0.000125	-0.003240
00305	13463467	9.793390	0.341804	0.265690	0.000583	0.003344	0.002085
00306	13463517	9.786393	0.357982	0.246999	-0.002934	0.000779	-0.002144
00307	13463567	9.786204	0.345353	0.265212	-0.005119	0.000132	-0.001439
00308	13463617	9.838717	0.326919	0.244068	-0.002474	0.000402	-0.000972
00309	13463667	9.816778	0.355661	0.267985	-0.004369	0.003894	-0.001585
00310	13463717	9.810740	0.345652	0.263387	-0.002516	0.000957	-0.000322
00311	13463767	9.817693	0.329235	0.248542	-0.001882	0.001767	-0.002698
00312	13463817	9.823336	0.346608	0.264968	-0.002661	-0.001057	-0.003538
00313	13463867	9.797853	0.368840	0.259174	-0.004933	0.002561	-0.000659
00314	13463917	9.816815	0.341222	0.251621	-0.008007	0.000404	-0.000986
00315	13463967	9.832047	0.345781	0.244353	-0.004184	-0.000141	-0.000296
00316	13464017	9.803271	0.347861	0.273067	-0.003186	0.002654	-0.002298
00317	13464067	9.806774	0.341186	0.258951	-0.002813	0.003339	-0.000307
00318	13464117	9.800865	0.361314	0.249288	-0.001979	0.000669	-0.003338
00319	13464167	9.804217	0.358637	0.250722	-0.003676	-0.000135	-0.002120
00320	13464217	9.826580	0.339768	0.254737	-0.004845	0.002957	0.002509
00321	13464267	9.810753	0.363489	0.263174	-0.009099	0.000546	-0.001623
00322	13464317	9.814602	0.341996	0.261041	-0.004369	0.001827	0.000519
00323	13464367	9.825909	0.336805	0.253708	-0.001844	0.000613	-0.001742
00324	13464417	9.808628	0.364741	0.258396	-0.005946	0.002090	-0.001590
00325	13464467	9.791019	0.359179	0.267309	-0.002382	0.000501	-0.002377
00326	13464517	9.802871	0.353129	0.250305	-0.000769	0.001312	-0.000998
00327	13464567	9.801992	0.342016	0.259208	-0.005382	0.003850	0.002971
00328	13464617	9.810239	0.334949	0.250671	-0.007039	-0.000902	-0.000642
00329	13464667	9.807466	0.358697	0.265076	-0.000648	-0.000631	-0.001588
00330	13464717	9.838553	0.323547	0.275912	-0.003119	-0.000448	-0.001646
00331	13464767	9.815310	0.363654	0.257347	-0.004832	-0.000767	-0.000584
00332	13464817	9.811185	0.342654	0.273062	-0.003292	0.002204	0.000837
00333	13464867	9.799140	0.352863	0.275452	-0.006303	0.001702	0.003926
00334	13464917	9.818214	0.343603	0.252315	-0.005042	0.000519	-0.002977
00335	13464967	9.818279	0.345591	0.275907	-0.002623	0.003311	0.000715
00336	13465017	9.813896	0.338062	0.266928	-0.004385	-0.001751	0.001749
00337	13465067	9.810755	0.338586	0.275197	-0.003811	0.003320	-0.001945
00338	13465117	9.800550	0.348213	0.288609	-0.007072	0.001231	-0.000696
00339	13465167	9.807641	0.341187	0.272933	-0.003614	-0.001805	0.000819
00340	13465217	9.796723	0.353995	0.279247	-0.006986	-0.000380	0.000453
00341	13465267	9.817547	0.348444	0.273401	-0.001810	-0.000101	0.000308
00342	13465317	9.828472	0.343031	0.250083	-0.000372	-0.001233	-0.000631
00343	13465367	9.791325	0.352730	0.268837	-0.006802	0.001911	-0.000501
00344	13465417	9.805913	0.342685	0.240917	-0.001730	0.001322	-0.001026
00345	13465467	9.801419	0.368422	0.260123	-0.002395	0.000887	-0.001957
00346	13465517	9.794741	0.348373	0.264690	-0.002122	0.000346	-0.003280
00347	13465567	9.794232	0.353459	0.259544	-0.002897	0.005753	-0.003917
00348	13465617	9.794606	0.341020	0.263053	-0.001103	0.002658	-0.002111
00349	13465667	9.796592	0.342066	0.247166	-0.003075	0.002069	-0.002430
00350	13465717	9.800165	0.338328	0.255346	-0.007909	0.001375	-0.001430
00351	13465767	9.806311	0.341268	0.256408	-0.004070	-0.000691	-0.001737
00352	13465817	9.826771	0.335536	0.271783	-0.003432	0.003621	0.000622
00353	13465867	9.809272	0.344191	0.271990	-0.003969	-0.001208	-0.004113
00354	13465917	9.811965	0.343881	0.261381	-0.004443	-0.002247	-0.002772
00355	13465967	9.816206	0.340768	0.273874	-0.003629	-0.000254	0.001658
00356	13466017	9.812363	0.347390	0.266502	-0.004750	0.000430	-0.002371
00357	13466067	9.812160	0.360726	0.274001	-0.001614	0.003776	-0.001372
00358	13466117	9.822636	0.341691	0.273901	-0.004195	0.002246	-0.002332
00359	13466167	9.812297	0.335606	0.262272	-0.002088	0.002184	-0.003713
00360	13466217	9.790664	0.351177	0.263345	-0.006594	0.003333	-0.003055
00361	13466267	9.807960	0.359735	0.260757	-0.007817	0.000341	-0.002012
00362	13466317	9.799509	0.359305	0.281150	-0.003926	-0.000104	-0.001670
00363	13466367	9.805141	0.355905	0.261506	-0.003483	-0.000903	-0.001038
00364	13466417	9.819098	0.340278	0.270632	-0.003222	0.004943	-0.003058
00365	13466467	9.787894	0.365214	0.259704	-0.005372	0.003162	-0.001810
00366	13466517	9.823787	0.330223	0.263860	-0.001451	0.000519	-0.001612
00367	13466567	9.813028	0.351728	0.266471	-0.003435	-0.000215	0.002077
00368	13466617	9.817750	0.350959	0.274158	-0.001201	0.001149	0.003713
00369	13466667	9.807667	0.358884	0.272052	-0.001663	0.001930	-0.004233
00370	13466717	9.807413	0.331095	0.252387	-0.004730	0.001913	-0.002491
00371	13466767	9.813419	0.345748	0.253369	-0.003136	0.001906	-0.004260
00372	13466817	9.801057	0.342555	0.255545	-0.004154	0.003450	0.000882
00373	13466867	9.811305	0.344177	0.252123	-0.000644	0.000152	-0.000782
00374	13466917	9.819179	0.353220	0.269820	-0.002857	0.001565	0.000577
00375	13466967	9.820406	0.326192	0.240379	-0.005721	0.003030	0.000367
00376	13467017	9.809426	0.344932	0.283449	-0.001779	-0.001356	-0.002388
00377	13467067	9.798674	0.342551	0.256671	-0.003254	-0.002190	-0.001457
00378	13467117	9.823735	0.343356	0.245893	-0.002175	0.001957	-0.003620
00379	13467167	9.830211	0.351030	0.261872	-0.002798	0.002362	-0.005126
00380	13467217	9.810819	0.340578	0.260113	-0.006246	0.003307	-0.002385
00381	13467267	9.803764	0.347418	0.270912	-0.001817	0.002031	-0.002755
00382	13467317	9.800897	0.342009	0.244605	-0.004581	0.003569	-0.000142
00383	13467367	9.798463	0.338955	0.260131	-0.004350	0.000148	-0.001223
00384	13467417	9.804648	0.348295	0.241872	-0.006402	-0.000790	0.000255
00385	13467467	9.840255	0.319770	0.240539	-0.005598	0.002456	0.002318
00386	13467517	9.811502	0.345604	0.255005	-0.002386	0.000732	-0.001258
00387	13467567	9.798347	0.346448	0.263208	-0.005815	0.001193	0.001228
00388	13467617	9.824337	0.343789	0.262447	-0.002947	0.002169	-0.003394
00389	13467667	9.792844	0.357579	0.244270	-0.003434	-0.000481	0.000186
00390	13467717	9.812765	0.353680	0.265626	-0.005664	0.003454	0.001623
00391	13467767	9.812983	0.352551	0.271266	-0.006715	0.000975	-0.002460
00392	13467817	9.812694	0.348165	0.249505	-0.005141	0.002710	-0.003127
00393	13467867	9.810183	0.366974	0.271328	-0.001582	0.002617	-0.002369
00394	13467917	9.807493	0.340738	0.259035	-0.005700	-0.001746	0.000085
00395	13467967	9.816485	0.359750	0.268099	-0.003759	-0.000426	-0.002668
00396	13468017	9.811249	0.346255	0.256472	-0.004331	0.000341	-0.001192
00397	13468067	9.812651	0.345245	0.263463	-0.002770	0.002954	-0.001111
00398	13468117	9.803498	0.353283	0.263471	-0.005656	0.000797	-0.003874
00399	13468167	9.804343	0.351297	0.284791	-0.006486	0.001815	-0.003450
00400	13468217	9.806393	0.339620	0.286692	-0.004199	0.002374	-0.002781
00401	13468267	9.806622	0.353966	0.256972	-0.004331	0.000733	0.000866
00402	13468317	9.803101	0.343009	0.271601	-0.003680	0.001587	0.001737
00403	13468367	9.800250	0.362759	0.268301	-0.002170	0.002288	0.000291
00404	13468417	9.807535	0.358302	0.255028	-0.004125	0.001155	-0.000540
00405	13468467	9.811580	0.352051	0.267247	-0.003935	-0.000715	-0.000455
00406	13468517	9.810515	0.343500	0.264289	-0.006307	-0.000889	-0.001091
00407	13468567	9.814328	0.345566	0.259665	-0.004280	0.004123	-0.000271
00408	13468617	9.832349	0.339019	0.247842	-0.002848	-0.002826	0.000453
00409	13468667	9.824019	0.335054	0.255452	-0.006023	0.001444	-0.001369
00410	13468717	9.814867	0.349767	0.281208	-0.004267	0.002536	-0.002749
00411	13468767	9.810282	0.349944	0.251457	-0.002404	0.001083	-0.002601
00412	13468817	9.797016	0.353188	0.272385	-0.001767	0.002649	-0.001150
00413	13468867	9.808259	0.357669	0.255767	-0.002266	0.001894	-0.001986
00414	13468917	9.817534	0.343898	0.245834	-0.004662	-0.000016	-0.000259
00415	13468967	9.800814	0.352911	0.274360	-0.007218	-0.004062	0.002515
00416	13469017	9.804339	0.339152	0.270623	-0.002772	0.000758	-0.000705
00417	13469067	9.823853	0.337169	0.277272	-0.004057	0.002795	-0.004382
00418	13469117	9.810201	0.330505	0.265127	-0.005034	0.002360	-0.002714
00419	13469167	9.811308	0.360080	0.256671	-0.002797	-0.000475	-0.002320
00420	13469217	9.795432	0.354138	0.255598	-0.005677	0.000774	0.000839
00421	13469267	9.806327	0.358551	0.257254	-0.003824	0.002674	-0.002395
00422	13469317	9.827048	0.337612	0.260741	-0.003855	0.002636	-0.000952
00423	13469367	9.813403	0.335445	0.276147	-0.005175	0.002677	-0.005177
00424	13469417	9.795933	0.351087	0.258933	-0.003056	0.001685	-0.001729
00425	13469467	9.804177	0.361217	0.251276	-0.002813	0.003278	0.000585
00426	13469517	9.828861	0.341807	0.267669	-0.006136	0.002185	0.000522
00427	13469567	9.814517	0.322955	0.276154	-0.004871	0.003823	0.000050
00428	13469617	9.817916	0.348081	0.252296	-0.004038	-0.001626	-0.000943
00429	13469667	9.818341	0.347399	0.262873	-0.002632	0.001603	0.001087
00430	13469717	9.806034	0.356743	0.269441	-0.006177	0.001112	-0.002975
00431	13469767	9.798457	0.349797	0.276639	-0.005199	0.000682	-0.000479
00432	13469817	9.810582	0.354126	0.271577	-0.002401	0.000250	-0.000745
00433	13469867	9.819530	0.334110	0.250934	-0.005474	0.001340	-0.000372
00434	13469917	9.824829	0.339326	0.269656	-0.001404	-0.003892	0.001354
00435	13469967	9.807244	0.339414	0.263690	-0.005479	0.001848	0.002646
00436	13470017	9.792936	0.365356	0.252702	-0.004743	0.000431	-0.002430
00437	13470067	9.803770	0.366111	0.270657	-0.006051	0.000541	-0.000503
00438	13470117	9.806779	0.353647	0.270844	-0.006521	0.000784	-0.004277
00439	13470167	9.822917	0.341261	0.266533	-0.006443	0.004928	0.000484
00440	13470217	9.801334	0.355796	0.261750	-0.008680	-0.000314	0.000498
00441	13470267	9.815211	0.330003	0.265879	-0.006296	0.003285	0.000469
00442	13470317	9.824417	0.340928	0.256452	-0.002059	0.003839	0.000179
00443	13470367	9.818965	0.332915	0.266656	-0.000302	-0.002228	0.001422
00444	13470417	9.804097	0.345488	0.258457	-0.005723	0.002129	-0.001072
00445	13470467	9.797621	0.363230	0.270368	-0.002696	-0.000658	-0.000995
00446	13470517	9.801701	0.367989	0.255550	-0.003246	0.001851	-0.000821
00447	13470567	9.821301	0.353999	0.271054	-0.004247	0.000992	-0.000505
00448	13470617	9.805846	0.358257	0.260082	-0.004088	0.002028	-0.001395
00449	13470667	9.808083	0.346850	0.266748	-0.005025	0.000102	-0.003166
00450	13470717	9.811437	0.350846	0.255743	-0.004582	0.000271	-0.002815
00451	13470767	9.792964	0.357145	0.264231	-0.001578	0.000452	-0.003044
00452	13470817	9.797667	0.355875	0.276621	-0.003146	0.000228	-0.004707
00453	13470867	9.814390	0.346587	0.247495	-0.006901	-0.001793	0.003621
00454	13470917	9.798385	0.364148	0.259593	-0.004909	0.000556	-0.001975
00455	13470967	9.825803	0.347565	0.248432	-0.005279	-0.001803	-0.000070
00456	13471017	9.813604	0.348036	0.257589	-0.005554	0.000575	-0.004156
00457	13471067	9.827721	0.343266	0.256178	-0.002506	0.000338	-0.003977
00458	13471117	9.810781	0.343695	0.260280	-0.002729	0.001270	-0.004447
00459	13471167	9.820321	0.341330	0.262648	-0.002294	0.001992	-0.000571
00460	13471217	9.808642	0.348268	0.249485	-0.004258	0.001280	-0.000887
00461	13471267	9.813809	0.343783	0.271092	-0.001862	0.002357	-0.002620
00462	13471317	9.818049	0.342091	0.243921	-0.005060	0.000232	-0.002459
00463	13471367	9.805230	0.351591	0.294398	-0.004986	0.002976	-0.004014
00464	13471417	9.811251	0.338115	0.233439	-0.007813	0.001440	-0.002161
00465	13471467	9.789743	0.339519	0.282152	-0.002999	-0.001348	-0.003757
00466	13471517	9.816413	0.350192	0.221529	-0.003409	0.004042	-0.000268
00467	13471567	9.795906	0.358262	0.287943	-0.003819	0.001346	-0.004444
00468	13471617	9.819042	0.356132	0.247045	-0.004728	0.000282	0.003402
00469	13471667	9.794348	0.334033	0.280252	-0.005860	-0.000581	0.000519
00470	13471717	9.814334	0.370615	0.247589	0.000528	0.000856	-0.000231
00471	13471767	9.811549	0.341850	0.255284	-0.003079	0.003465	-0.002867
00472	13471817	9.801056	0.359334	0.261541	-0.003515	0.002366	0.000817
00473	13471867	9.791520	0.363858	0.253856	-0.007278	0.000582	-0.002001
00474	13471917	9.815513	0.352378	0.286242	-0.005584	0.003675	-0.003502
00475	13471967	9.811698	0.349528	0.254281	-0.002296	0.000469	-0.005253
00476	13472017	9.802003	0.347156	0.286485	-0.001872	0.000676	-0.002052
00477	13472067	9.813957	0.328793	0.238347	0.000957	0.005470	-0.001649
00478	13472117	9.807411	0.350694	0.290979	-0.006352	-0.000305	-0.002427
00479	13472167	9.808913	0.358385	0.223902	-0.007465	0.002746	0.000474
00480	13472217	9.788733	0.338995	0.292257	-0.004122	-0.001974	-0.001128
00481	13472267	9.808146	0.369518	0.248785	-0.004337	0.000127	0.004104
00482	13472317	9.833192	0.339292	0.264786	-0.007237	0.002552	0.000535
00483	13472367	9.831340	0.351925	0.230957	-0.001576	0.001357	-0.003173
00484	13472417	9.794307	0.336194	0.282593	-0.003124	-0.000122	-0.001923
00485	13472467	9.818947	0.351150	0.234639	-0.004295	0.002702	0.000338
00486	13472517	9.809128	0.344472	0.295073	-0.005839	0.002898	-0.000200
00487	13472567	9.804439	0.344897	0.243781	-0.004509	0.000282	0.001450
00488	13472617	9.812071	0.341379	0.287281	-0.009780	0.000953	-0.003119
00489	13472667	9.813762	0.339771	0.248819	-0.007150	0.002745	-0.002059
00490	13472717	9.817278	0.348616	0.278460	-0.005896	0.000611	-0.000725
00491	13472767	9.813194	0.351251	0.239950	-0.002292	0.001966	0.000008
00492	13472817	9.812702	0.337870	0.269044	-0.004229	-0.002756	-0.001805
00493	13472867	9.810364	0.363692	0.249761	-0.005274	0.001103	-0.000978
00494	13472917	9.826317	0.356353	0.264257	-0.005998	-0.000463	-0.002334
00495	13472967	9.790764	0.364570	0.258031	-0.002751	0.001274	-0.001019
00496	13473017	9.813867	0.330042	0.251451	-0.001449	0.003392	-0.003639
00497	13473067	9.801109	0.353785	0.264230	-0.006158	0.003091	0.000828
00498	13473117	9.800606	0.357018	0.260804	-0.005929	-0.001491	-0.001155
00499	13473167	9.803072	0.342801	0.276071	-0.005105	-0.001317	-0.001247
00500	13473217	9.805290	0.353477	0.242354	-0.004548	0.000475	0.000551
00501	13473267	9.787891	0.351549	0.248617	-0.001454	-0.002316	0.000308
00502	13473317	9.809138	0.356722	0.268436	-0.005324	0.000717	-0.000823
00503	13473367	9.817171	0.359249	0.235008	-0.005036	-0.001408	-0.000419
00504	13473417	9.800239	0.354703	0.287610	-0.004879	-0.002345	-0.002381
00505	13473467	9.815361	0.357438	0.262664	-0.004064	0.002120	-0.004312
00506	13473517	9.806340	0.343820	0.246256	-0.004736	-0.004156	-0.003318
00507	13473567	9.793268	0.349314	0.270160	-0.000983	0.000346	0.002787
00508	13473617	9.828537	0.345752	0.274107	-0.004902	0.000431	-0.001053
00509	13473667	9.819706	0.337721	0.254268	-0.005483	0.002418	-0.004370
00510	13473717	9.804993	0.343569	0.272048	-0.001861	-0.000673	-0.000358
00511	13473767	9.809811	0.344655	0.261075	-0.005905	0.003394	0.003295
00512	13473817	9.809463	0.342085	0.283778	-0.001821	0.000131	-0.000483
00513	13473867	9.820147	0.342546	0.249513	-0.003476	0.003712	-0.003698
00514	13473917	9.799622	0.356601	0.268233	-0.003298	-0.000640	-0.001092
00515	13473967	9.805496	0.356115	0.243525	-0.003091	-0.000183	-0.000609
00516	13474017	9.809601	0.335823	0.273998	-0.002132	0.002836	-0.001364
00517	13474067	9.804816	0.371215	0.245284	-0.005107	0.004271	0.000702
00518	13474117	9.794881	0.352045	0.273126	-0.006641	0.001754	-0.002321
00519	13474167	9.801770	0.352216	0.275421	-0.003283	0.001241	0.001869
00520	13474217	9.815771	0.350427	0.248447	-0.005180	-0.000960	0.000449
00521	13474267	9.803849	0.346715	0.257973	-0.004368	0.002731	-0.001872
00522	13474317	9.818061	0.338193	0.249278	-0.005773	0.003871	-0.000291
00523	13474367	9.832623	0.341753	0.275194	-0.004821	-0.002252	-0.002220
00524	13474417	9.800672	0.347868	0.268986	-0.005303	0.001007	-0.001554
00525	13474467	9.814750	0.344515	0.271306	-0.007518	0.002025	-0.003179
00526	13474517	9.815305	0.349738	0.248670	-0.004020	-0.001002	0.000703
00527	13474567	9.815626	0.354250	0.265911	-0.002226	-0.003496	-0.002430
00528	13474617	9.798515	0.352423	0.262536	-0.007414	0.002033	-0.001422
00529	13474667	9.794359	0.353358	0.277164	-0.005558	0.002034	-0.001036
00530	13474717	9.816825	0.347583	0.238011	-0.004322	0.001376	-0.002620
00531	13474767	9.785113	0.349450	0.277906	-0.004344	0.000051	-0.001503
00532	13474817	9.806050	0.362844	0.255249	-0.005137	0.000877	-0.001881
00533	13474867	9.797784	0.351470	0.267014	-0.006540	-0.000603	-0.003324
00534	13474917	9.809991	0.353224	0.253628	-0.005487	0.002874	-0.001260
00535	13474967	9.809365	0.343641	0.259614	-0.005421	0.002744	-0.001965
00536	13475017	9.802091	0.371449	0.261603	-0.004833	0.002534	0.000307
00537	13475067	9.825292	0.347974	0.254900	-0.003783	0.000284	-0.002624
00538	13475117	9.820072	0.344199	0.258610	-0.007077	0.002688	0.000635
00539	13475167	9.797902	0.367496	0.254549	-0.007996	-0.000913	-0.001783
00540	13475217	9.808161	0.340839	0.265835	-0.005461	0.001007	0.000846
00541	13475267	9.811035	0.345327	0.254851	-0.004747	0.003663	-0.000905
00542	13475317	9.824386	0.341364	0.260139	-0.001676	-0.001219	0.001269
00543	13475367	9.797585	0.353996	0.254389	-0.003768	0.002030	-0.002743
00544	13475417	9.796672	0.342100	0.273512	-0.004383	-0.000820	-0.001762
00545	13475467	9.801405	0.370354	0.259592	-0.007647	0.002119	-0.004813
00546	13475517	9.818931	0.341237	0.257205	-0.006776	0.003473	0.002658
00547	13475567	9.793368	0.341143	0.269524	-0.007384	-0.000097	-0.003162
00548	13475617	9.809277	0.340539	0.241177	-0.003235	0.002430	-0.002071
00549	13475667	9.810330	0.362036	0.257024	0.000034	0.003721	0.003092
00550	13475717	9.806743	0.338777	0.267841	-0.001048	0.004112	-0.001460
00551	13475767	9.822886	0.338554	0.277712	-0.004184	0.001924	-0.001335
00552	13475817	9.812756	0.335771	0.265166	-0.003162	0.002075	-0.002360
00553	13475867	9.812062	0.353968	0.262894	-0.003023	-0.001182	0.000858
00554	13475917	9.809530	0.333983	0.251163	-0.005036	-0.000180	0.001575
00555	13475967	9.819067	0.346750	0.261416	0.000275	-0.001446	-0.000498
00556	13476017	9.821070	0.343154	0.253092	-0.007235	0.002323	-0.002541
00557	13476067	9.814655	0.340898	0.255235	-0.004180	0.000800	-0.001083
00558	13476117	9.815131	0.349296	0.277530	-0.004511	0.001375	-0.000183
00559	13476167	9.803102	0.351181	0.254261	-0.003057	-0.000277	-0.001251
00560	13476217	9.799523	0.369400	0.257015	-0.001654	0.002004	-0.002269
00561	13476267	9.813996	0.346809	0.274155	-0.004256	0.000080	-0.003809
00562	13476317	9.820445	0.346434	0.271505	-0.008145	0.000664	-0.001746
00563	13476367	9.815288	0.343805	0.263400	-0.006087	0.000544	0.000106
00564	13476417	9.797748	0.355524	0.263730	-0.002839	0.000791	-0.002206
00565	13476467	9.805157	0.352140	0.266535	-0.005239	0.000142	0.002056
00566	13476517	9.797916	0.347003	0.253817	-0.004554	-0.001767	-0.004137
00567	13476567	9.800871	0.349045	0.273751	-0.004888	0.000976	-0.002909
00568	13476617	9.805201	0.348934	0.267311	-0.006329	0.002017	-0.003055
00569	13476667	9.818549	0.330945	0.261250	-0.003742	0.001157	-0.002526
00570	13476717	9.828890	0.355219	0.274777	-0.006021	-0.000560	-0.000282
00571	13476767	9.789563	0.346816	0.257551	-0.005978	0.001857	-0.005368
00572	13476817	9.818753	0.350276	0.267264	-0.003508	0.004070	-0.000908
00573	13476867	9.790759	0.371037	0.247234	-0.001381	0.001464	-0.001115
00574	13476917	9.811008	0.323627	0.264288	-0.004245	-0.000138	-0.000928
00575	13476967	9.802099	0.355635	0.253841	-0.002171	0.000227	0.001794
00576	13477017	9.799950	0.349521	0.266773	-0.004233	0.000571	-0.000922
00577	13477067	9.816187	0.331586	0.257359	-0.006156	0.000766	0.000429
00578	13477117	9.807048	0.329848	0.275443	-0.005438	0.002227	-0.002516
00579	13477167	9.814945	0.359046	0.250249	-0.000824	0.002888	-0.003583
00580	13477217	9.808596	0.369059	0.254054	-0.003248	0.001751	-0.000854
00581	13477267	9.810880	0.350413	0.269363	-0.002902	-0.000544	-0.004457
00582	13477317	9.799966	0.356690	0.250501	-0.004281	0.001120	-0.000691
00583	13477367	9.815125	0.350864	0.275621	-0.003678	0.002060	-0.004250
00584	13477417	9.793556	0.370079	0.257482	-0.005259	-0.000515	-0.003073
00585	13477467	9.807395	0.342419	0.272263	-0.003389	0.000135	-0.000540
00586	13477517	9.803527	0.350072	0.265663	-0.001867	0.002648	-0.001435
00587	13477567	9.808552	0.349783	0.262766	-0.005925	0.003377	-0.003979
00588	13477617	9.789523	0.343679	0.270994	-0.008701	0.002234	-0.001445
00589	13477667	9.806817	0.341482	0.250764	-0.003134	0.002534	0.001072
00590	13477717	9.801448	0.352158	0.251200	-0.001436	-0.001024	-0.000297
00591	13477767	9.811547	0.351258	0.274210	-0.002545	0.002827	-0.002615
00592	13477817	9.813891	0.357525	0.269651	-0.004483	0.001372	-0.001497
00593	13477867	9.810581	0.339787	0.262388	-0.006919	-0.001803	-0.002754
00594	13477917	9.823132	0.335285	0.243436	-0.002429	0.000053	-0.000805
00595	13477967	9.817524	0.352019	0.270799	-0.006147	0.000379	0.000011
00596	13478017	9.822043	0.348526	0.278401	-0.002220	0.001311	-0.003908
00597	13478067	9.803125	0.344003	0.264814	-0.004541	-0.002119	-0.003501
00598	13478117	9.807407	0.366644	0.258359	-0.005409	0.001290	-0.001460
00599	13478167	9.823065	0.331202	0.263113	-0.005008	-0.001446	-0.002633
00600	13478217	9.826684	0.339403	0.239429	-0.005488	0.003907	-0.002025
00601	13478267	9.814489	0.343312	0.277386	-0.006033	0.004225	0.001825
00602	13478317	9.806291	0.356460	0.267092	-0.004676	0.003567	0.000154
00603	13478367	9.801661	0.360785	0.276359	-0.003637	-0.000095	-0.000668
00604	13478417	9.814239	0.356803	0.253048	-0.007118	-0.000253	-0.000404
00605	13478467	9.815528	0.343372	0.263653	-0.003711	0.003227	-0.001518
00606	13478517	9.813287	0.348512	0.268713	-0.005634	0.000390	-0.000886
00607	13478567	9.825765	0.346167	0.258575	-0.004487	0.002734	0.001075
00608	13478617	9.824986	0.345008	0.272237	-0.003806	0.001291	-0.001214
00609	13478667	9.826025	0.336967	0.274113	-0.004017	0.000801	-0.001052
00610	13478717	9.797476	0.350278	0.280286	-0.002218	0.002641	-0.001653
00611	13478767	9.817401	0.340954	0.273710	-0.006182	0.001308	-0.003546
00612	13478817	9.814301	0.343873	0.267953	-0.005501	-0.000504	0.003977
00613	13478867	9.816135	0.338290	0.252153	-0.002354	0.001998	0.000490
00614	13478917	9.820927	0.340842	0.282329	-0.006277	0.002404	-0.002481
00615	13478967	9.821395	0.356204	0.252251	-0.001821	-0.002032	-0.000724
00616	13479017	9.797851	0.364674	0.267177	-0.003950	-0.002361	-0.000075
00617	13479067	9.810277	0.345290	0.261970	-0.002699	0.000532	-0.002404
00618	13479117	9.812732	0.340115	0.260506	-0.005507	0.000320	-0.001983
00619	13479167	9.806059	0.341991	0.256984	-0.009803	0.001506	-0.002250
00620	13479217	9.808378	0.341329	0.268963	-0.004460	0.000567	-0.002042
00621	13479267	9.801713	0.354180	0.242270	-0.002871	-0.000889	0.000671
00622	13479317	9.798871	0.344397	0.259368	-0.004404	0.001992	-0.000209
00623	13479367	9.813466	0.349531	0.276956	-0.002442	-0.002589	0.000210
00624	13479417	9.801356	0.354880	0.259390	-0.002611	0.000022	0.000290
00625	13479467	9.802876	0.357246	0.279548	-0.002988	0.002625	-0.001459
00626	13479517	9.801587	0.367201	0.274694	-0.004130	0.001481	-0.000951
00627	13479567	9.808739	0.361372	0.246394	-0.004715	0.000792	-0.000600
00628	13479617	9.802723	0.357354	0.265567	-0.002935	0.000214	0.001574
00629	13479667	9.794003	0.358363	0.247477	-0.004864	0.002006	-0.003923
00630	13479717	9.806057	0.340128	0.262293	-0.004727	0.002179	-0.000433
00631	13479767	9.806383	0.348658	0.268382	-0.002576	-0.001503	-0.001996
00632	13479817	9.820189	0.344050	0.239868	-0.005326	-0.000385	-0.002594
00633	13479867	9.807408	0.336513	0.281378	-0.005393	0.000947	0.000174
00634	13479917	9.814435	0.359397	0.253535	-0.004476	0.000089	-0.001118
00635	13479967	9.810837	0.336148	0.266816	-0.002979	0.002540	0.000526
00636	13480017	9.817877	0.340402	0.275545	-0.003041	-0.000855	-0.000742
00637	13480067	9.817908	0.327335	0.257675	-0.005490	0.002979	-0.000680
00638	13480117	9.797345	0.360720	0.280214	-0.006101	0.001933	-0.002288
00639	13480167	9.818364	0.347061	0.259767	-0.006343	-0.000688	-0.002784
00640	13480217	9.811460	0.347449	0.258870	-0.002860	0.002667	-0.002296
00641	13480267	9.798141	0.348294	0.254334	-0.006261	0.002094	0.000120
00642	13480317	9.799690	0.356701	0.256024	-0.004354	0.000747	0.003149
00643	13480367	9.811516	0.342785	0.258595	-0.001038	0.000433	-0.003245
00644	13480417	9.823901	0.341873	0.260454	-0.003246	-0.000338	-0.000836
00645	13480467	9.829273	0.332000	0.259394	-0.004467	-0.001331	-0.001736
00646	13480517	9.809016	0.355297	0.253373	-0.006666	0.002667	-0.001994
00647	13480567	9.788130	0.373013	0.243618	-0.004154	-0.000937	-0.001123
00648	13480617	9.790763	0.363625	0.260376	-0.004490	0.001311	-0.003544
00649	13480667	9.823648	0.347269	0.251291	-0.003223	-0.001180	-0.002060
00650	13480717	9.813271	0.350648	0.268628	-0.004476	-0.001944	-0.001261
00651	13480767	9.810094	0.349093	0.244276	-0.007269	0.002591	-0.000520
00652	13480817	9.811521	0.332450	0.280192	-0.004102	0.003418	-0.002639
00653	13480867	9.810405	0.336996	0.256875	-0.005208	-0.000921	0.000675
00654	13480917	9.810760	0.359831	0.270649	-0.004671	0.002444	-0.000495
00655	13480967	9.787576	0.366066	0.271466	-0.008859	0.002699	0.002596
00656	13481017	9.807084	0.351034	0.265609	-0.004856	0.002155	-0.000171
00657	13481067	9.808254	0.334783	0.263800	-0.006996	-0.002345	-0.002179
00658	13481117	9.807743	0.345956	0.246410	-0.004713	0.002635	-0.002418
00659	13481167	9.809003	0.346207	0.273779	-0.005319	0.003692	-0.001799
00660	13481217	9.803053	0.351641	0.260914	-0.003037	0.004114	-0.003214
00661	13481267	9.783752	0.360254	0.246035	-0.001723	0.001434	0.001769
00662	13481317	9.809847	0.354762	0.273232	-0.008615	0.001827	0.001242
00663	13481367	9.816787	0.339338	0.260753	-0.003441	-0.000110	0.001315
00664	13481417	9.793736	0.348194	0.273599	-0.006437	0.002509	-0.001963
00665	13481467	9.793651	0.371759	0.239799	-0.006620	0.002113	-0.003120
00666	13481517	9.807919	0.346938	0.254306	-0.003863	0.000138	0.001574
00667	13481567	9.826175	0.355187	0.250096	-0.001899	-0.001674	-0.002318
00668	13481617	9.804473	0.351531	0.262955	-0.005838	0.001910	-0.000236
00669	13481667	9.813217	0.348794	0.279711	-0.001303	0.002054	-0.000056
00670	13481717	9.811987	0.346142	0.252432	-0.003909	0.003359	-0.002157
00671	13481767	9.799780	0.367306	0.258511	-0.006209	0.004251	-0.003429
00672	13481817	9.794736	0.348815	0.264657	-0.004656	0.000699	-0.001525
00673	13481867	9.824415	0.352914	0.271065	-0.004743	0.003471	-0.002126
00674	13481917	9.809649	0.355882	0.264154	-0.003415	-0.000082	-0.001122
00675	13481967	9.813971	0.353108	0.265308	-0.002187	0.001646	-0.002748
00676	13482017	9.813984	0.340234	0.249958	-0.007258	0.001075	-0.000978
00677	13482067	9.792279	0.357162	0.258448	-0.006679	0.000213	0.000237
00678	13482117	9.809216	0.359367	0.250705	-0.005937	0.001972	0.000757
00679	13482167	9.819157	0.341571	0.259023	-0.005657	-0.000934	-0.001215
00680	13482217	9.825332	0.340483	0.263355	-0.002247	0.001289	-0.002593
00681	13482267	9.817810	0.347279	0.272210	-0.005729	-0.001835	0.000252
00682	13482317	9.817511	0.355694	0.263582	-0.005061	-0.000306	0.001096
00683	13482367	9.811383	0.341238	0.244730	-0.005458	0.002914	-0.001482
00684	13482417	9.794922	0.348088	0.275239	-0.003575	0.002310	0.001460
00685	13482467	9.803906	0.359598	0.262238	-0.002750	0.001482	0.000582
00686	13482517	9.806921	0.342024	0.271096	-0.007522	0.000291	-0.002233
00687	13482567	9.805287	0.345789	0.257980	-0.005843	0.001841	-0.002964
00688	13482617	9.803790	0.367117	0.265796	-0.006427	0.001378	0.000339
00689	13482667	9.807136	0.346525	0.266730	-0.004866	-0.000366	0.001834
00690	13482717	9.813276	0.338656	0.251200	-0.005424	0.002682	-0.003535
00691	13482767	9.815495	0.348959	0.258258	-0.000678	-0.001883	-0.003448
00692	13482817	9.813501	0.356767	0.257332	-0.007141	-0.000606	-0.001720
00693	13482867	9.816414	0.346173	0.269054	-0.003205	-0.000729	-0.001702
00694	13482917	9.813589	0.359996	0.275130	-0.005852	0.001358	-0.000208
00695	13482967	9.804072	0.342769	0.267853	-0.003903	0.004227	-0.003212
00696	13483017	9.804895	0.351160	0.273016	-0.003594	0.001493	-0.001397
00697	13483067	9.799233	0.355654	0.254854	-0.004023	0.002164	0.000175
00698	13483117	9.802131	0.344897	0.270662	-0.000065	0.000628	0.003201
00699	13483167	9.804462	0.350505	0.267275	-0.004359	0.001712	0.001134
00700	13483217	9.802634	0.340652	0.274754	-0.005730	0.000650	0.000845
00701	13483267	9.790882	0.368927	0.268735	-0.002565	-0.000754	-0.003014
00702	13483317	9.810892	0.363628	0.241313	-0.005177	-0.001186	-0.003174
00703	13483367	9.818096	0.359162	0.278661	-0.007316	-0.000256	-0.002843
00704	13483417	9.791448	0.354735	0.244386	-0.004438	0.003258	-0.000040
00705	13483467	9.809698	0.341961	0.284329	-0.006741	0.003448	0.002914
00706	13483517	9.808672	0.349339	0.281022	-0.004648	0.004032	0.002784
00707	13483567	9.794731	0.373344	0.254816	-0.000516	0.000449	-0.000163
00708	13483617	9.810559	0.338287	0.268429	-0.005360	0.001686	-0.001681
00709	13483667	9.805209	0.337260	0.249450	-0.002275	-0.001777	-0.001584
00710	13483717	9.800330	0.353286	0.274208	-0.004399	-0.000430	-0.002527
00711	13483767	9.804191	0.357853	0.256950	-0.000945	0.000470	-0.003334
00712	13483817	9.815536	0.336338	0.275782	-0.002638	-0.000494	-0.003270
00713	13483867	9.815434	0.334471	0.258043	-0.003405	-0.002409	-0.001360
00714	13483917	9.804084	0.350718	0.250226	-0.003758	0.002175	0.002867
00715	13483967	9.813191	0.360257	0.261051	-0.002892	0.002700	-0.001173
00716	13484017	9.811686	0.361627	0.231332	-0.000194	0.003357	-0.002008
00717	13484067	9.815191	0.351767	0.262021	-0.003506	0.003947	-0.001839
00718	13484117	9.810903	0.357988	0.251445	-0.003894	0.002810	-0.003633
00719	13484167	9.812234	0.327373	0.251690	-0.004070	0.002486	-0.000367
00720	13484217	9.809666	0.338604	0.257929	-0.000624	0.003870	-0.001170
00721	13484267	9.808652	0.341722	0.261463	0.000387	-0.000215	-0.003729
00722	13484317	9.817726	0.342597	0.255481	-0.002258	0.000579	-0.001668
00723	13484367	9.805319	0.335683	0.273991	-0.002222	0.000977	0.001383
00724	13484417	9.815098	0.349083	0.243341	-0.004929	0.003541	0.001721
00725	13484467	9.828466	0.339421	0.259494	-0.007171	0.000165	-0.003964
00726	13484517	9.819858	0.344126	0.255010	-0.003792	0.002549	-0.004569
00727	13484567	9.804218	0.344627	0.279842	-0.004520	0.004805	-0.000130
00728	13484617	9.814146	0.340060	0.262205	-0.006330	0.002190	-0.000525
00729	13484667	9.793344	0.339765	0.276980	-0.004272	0.003067	0.000665
00730	13484717	9.821623	0.341356	0.244633	-0.004399	-0.000199	0.000355
00731	13484767	9.795817	0.356283	0.266984	-0.003186	-0.002178	-0.000521
00732	13484817	9.801250	0.344957	0.258916	-0.004942	0.001793	-0.000177
00733	13484867	9.806754	0.357738	0.267002	-0.002302	0.001127	-0.002789
00734	13484917	9.812554	0.345033	0.280158	-0.004382	0.000057	-0.002981
00735	13484967	9.819264	0.352022	0.258578	-0.005088	0.002376	-0.000110
00736	13485017	9.817200	0.341692	0.265860	-0.003660	0.002750	-0.001396
00737	13485067	9.806850	0.362336	0.281477	-0.003852	0.004110	0.002111
00738	13485117	9.811070	0.363069	0.250410	-0.005309	-0.000929	-0.002753
00739	13485167	9.802585	0.349636	0.264677	-0.002439	0.001417	-0.002559
00740	13485217	9.805823	0.345858	0.249116	-0.002982	0.004604	-0.000939
00741	13485267	9.797617	0.366377	0.263443	-0.008276	0.000087	0.000466
00742	13485317	9.798581	0.351987	0.252727	-0.004200	0.001810	0.001423
00743	13485367	9.797391	0.364683	0.265662	-0.003672	0.002535	0.002995
00744	13485417	9.810933	0.330922	0.262822	-0.002145	-0.001705	0.000951
00745	13485467	9.821818	0.339033	0.255734	-0.001405	0.001113	-0.001152
00746	13485517	9.808532	0.356531	0.251330	-0.006847	-0.002891	-0.001352
00747	13485567	9.805563	0.344750	0.254834	-0.004712	0.002737	0.000500
00748	13485617	9.799070	0.344790	0.264253	-0.003986	0.003238	0.002714
00749	13485667	9.813692	0.342621	0.254323	-0.006082	0.003188	-0.003694
00750	13485717	9.802854	0.352609	0.253575	-0.004406	-0.000037	-0.000697
00751	13485767	9.793117	0.344096	0.267097	-0.003185	0.001559	-0.004318
00752	13485817	9.785824	0.348014	0.243629	-0.003090	0.000858	-0.000601
00753	13485867	9.796897	0.341785	0.276724	-0.004461	0.003804	-0.000264
00754	13485917	9.819536	0.344494	0.229368	-0.005294	0.002459	-0.003986
00755	13485967	9.825418	0.337469	0.255177	-0.004367	0.000740	-0.000861
00756	13486017	9.814126	0.336542	0.272701	-0.002144	0.000258	-0.001027
00757	13486067	9.828566	0.351448	0.256785	-0.004719	-0.000241	0.000131
00758	13486117	9.793021	0.345718	0.277627	-0.004070	-0.001546	-0.000198
00759	13486167	9.808293	0.357000	0.251180	-0.001076	-0.000270	-0.001901
00760	13486217	9.801214	0.354803	0.283566	-0.005142	0.001077	-0.002392
00761	13486267	9.820626	0.340323	0.253600	-0.004676	0.004476	-0.001894
00762	13486317	9.805945	0.338835	0.243386	-0.003014	0.002568	-0.001749
00763	13486367	9.814451	0.328741	0.275362	-0.005201	0.000755	-0.000344
00764	13486417	9.806451	0.332529	0.251280	-0.002597	0.002445	-0.001656
00765	13486467	9.795493	0.339931	0.274940	-0.003354	-0.001284	-0.003050
00766	13486517	9.822383	0.347580	0.263572	-0.004113	-0.000489	-0.004104
00767	13486567	9.814908	0.347597	0.278504	-0.002964	0.002055	0.000199
00768	13486617	9.828662	0.350170	0.281993	-0.003248	0.000758	-0.001759
00769	13486667	9.815887	0.363022	0.281781	-0.003876	0.000525	-0.000219
00770	13486717	9.820371	0.335543	0.266420	-0.003421	-0.000627	0.000764
00771	13486767	9.822750	0.338790	0.258786	-0.003491	0.000200	-0.003395
00772	13486817	9.819463	0.372902	0.261377	-0.001923	-0.000741	-0.001775
00773	13486867	9.831252	0.328301	0.254450	-0.007290	-0.000025	-0.001434
00774	13486917	9.809152	0.356320	0.267705	-0.007769	-0.000035	-0.002008
00775	13486967	9.789912	0.341212	0.251009	-0.003472	0.001215	0.003247
00776	13487017	9.803846	0.352722	0.247149	-0.001865	0.001588	-0.000060
00777	13487067	9.811281	0.347765	0.248649	0.000121	-0.002636	0.000457
00778	13487117	9.804081	0.353654	0.244262	-0.003201	0.000509	0.002083
00779	13487167	9.810254	0.354074	0.247233	0.000786	0.005566	-0.004788
00780	13487217	9.831401	0.325646	0.274494	-0.004146	-0.001292	-0.001575
00781	13487267	9.812865	0.369440	0.254752	-0.005013	-0.000411	-0.004739
00782	13487317	9.812948	0.341740	0.260374	-0.002743	0.004090	-0.000844
00783	13487367	9.817360	0.338119	0.246836	-0.003564	0.001690	-0.000024
00784	13487417	9.807925	0.318075	0.272081	-0.001793	0.000204	-0.001736
00785	13487467	9.809796	0.339758	0.235672	-0.003750	0.004393	-0.003434
00786	13487517	9.813025	0.354060	0.261634	-0.004854	-0.001241	-0.001891
00787	13487567	9.809540	0.347360	0.261207	-0.008614	-0.001367	0.000647
00788	13487617	9.818789	0.330387	0.264597	-0.003880	0.000356	-0.002912
00789	13487667	9.812168	0.346904	0.260682	-0.003040	-0.001753	0.000601
00790	13487717	9.808617	0.355185	0.240252	-0.006454	0.004419	0.002310
00791	13487767	9.793215	0.348281	0.281168	-0.008590	-0.002373	-0.000894
00792	13487817	9.817408	0.351373	0.251111	-0.005788	0.000132	-0.000216
00793	13487867	9.804409	0.339636	0.259841	-0.003956	0.001238	0.002319
00794	13487917	9.812719	0.351653	0.278770	-0.003245	0.003858	-0.000846
00795	13487967	9.813794	0.360578	0.239877	-0.006600	0.000601	0.000014
00796	13488017	9.806932	0.358619	0.275178	-0.003976	0.000352	-0.003970
00797	13488067	9.818016	0.346330	0.239509	-0.006375	0.003507	-0.002473
00798	13488117	9.807845	0.332687	0.256279	-0.005648	0.003976	0.000925
00799	13488167	9.816241	0.325470	0.260965	-0.003417	0.001913	-0.002522
00800	13488217	9.813770	0.335523	0.255540	-0.004831	0.001948	-0.005275
00801	13488267	9.816584	0.345808	0.280165	-0.003412	0.002717	-0.004086
00802	13488317	9.810503	0.344770	0.265325	-0.006241	0.000151	-0.003003
00803	13488367	9.812326	0.341705	0.246194	-0.003129	0.003181	-0.000689
00804	13488417	9.801536	0.342111	0.255792	-0.004516	0.000344	-0.001630
00805	13488467	9.815154	0.349407	0.273250	-0.005142	0.003046	-0.001356
00806	13488517	9.795893	0.368737	0.268751	-0.005486	0.002518	-0.005168
00807	13488567	9.805473	0.356766	0.283575	-0.003316	0.002851	-0.002836
00808	13488617	9.824796	0.338970	0.237697	-0.004848	0.000562	-0.003363
00809	13488667	9.812346	0.329367	0.267084	-0.002970	0.003789	-0.003954
00810	13488717	9.807379	0.347128	0.265109	-0.004011	0.001550	-0.002807
00811	13488767	9.812544	0.354081	0.261179	-0.006755	-0.001629	-0.000641
00812	13488817	9.826433	0.352963	0.252509	-0.006070	0.000767	-0.003196
00813	13488867	9.776917	0.363262	0.267900	-0.002249	0.000544	-0.002624
00814	13488917	9.804976	0.337346	0.249121	-0.004281	0.003998	-0.002571
00815	13488967	9.802142	0.349372	0.259478	-0.002431	0.004520	0.000215
00816	13489017	9.805288	0.351056	0.247395	-0.008973	0.000919	0.000756
00817	13489067	9.832763	0.338408	0.258921	-0.002431	-0.000875	-0.000107
00818	13489117	9.808353	0.346674	0.261484	-0.007460	0.000358	-0.001523
00819	13489167	9.818145	0.347299	0.256441	-0.005367	0.001041	-0.002169
00820	13489217	9.805683	0.366574	0.267704	-0.006082	0.000844	0.003541
00821	13489267	9.815480	0.348506	0.260350	-0.003096	0.001952	-0.003003
00822	13489317	9.806713	0.343467	0.264347	-0.004611	0.000314	-0.001372
00823	13489367	9.812309	0.353610	0.263217	-0.006235	0.002024	-0.003734
00824	13489417	9.801768	0.349851	0.280739	-0.001822	0.002233	-0.001854
00825	13489467	9.816310	0.341688	0.256258	-0.006102	0.003996	-0.003431
00826	13489517	9.810155	0.355024	0.261235	-0.003832	0.001037	-0.000855
00827	13489567	9.820686	0.338914	0.246519	-0.002258	-0.002257	0.000402
00828	13489617	9.810817	0.337580	0.268249	-0.006828	0.002595	-0.002123
00829	13489667	9.813854	0.345024	0.260685	-0.004497	-0.001103	0.001183
00830	13489717	9.791910	0.369069	0.256585	-0.002419	0.001901	-0.001275
00831	13489767	9.821189	0.339648	0.280400	-0.007536	0.000744	-0.002452
00832	13489817	9.817811	0.353218	0.258834	-0.005389	0.000718	-0.001335
00833	13489867	9.786424	0.354513	0.235965	-0.000948	0.000493	-0.004714
00834	13489917	9.801600	0.344472	0.254009	-0.008173	0.002793	-0.002088
00835	13489967	9.817799	0.347366	0.247626	-0.003493	-0.000445	-0.000326
00836	13490017	9.813370	0.349921	0.264882	-0.003359	-0.000767	-0.001128
00837	13490067	9.801332	0.366416	0.253948	-0.002058	0.000877	0.002276
00838	13490117	9.809486	0.342883	0.253211	-0.007155	0.000709	-0.003224
00839	13490167	9.817540	0.336782	0.271825	-0.002111	-0.000745	-0.000655
00840	13490217	9.813933	0.356883	0.237848	-0.002757	0.002667	0.000077
00841	13490267	9.817080	0.333120	0.276325	-0.001372	-0.000895	-0.001008
00842	13490317	9.810629	0.354663	0.275457	-0.007369	-0.000451	-0.000828
00843	13490367	9.822375	0.358476	0.255510	-0.005735	-0.000361	-0.001182
00844	13490417	9.814560	0.350550	0.264453	-0.002927	0.001825	0.000263
00845	13490467	9.798312	0.361037	0.251813	-0.003964	0.001193	-0.000952
00846	13490517	9.820848	0.343495	0.263239	-0.002013	0.002961	-0.005180
00847	13490567	9.809784	0.351256	0.264462	-0.005476	0.001391	-0.000596
00848	13490617	9.812798	0.360040	0.259317	-0.002040	-0.001367	-0.005270
00849	13490667	9.810565	0.345269	0.266416	-0.005791	0.003518	-0.000232
00850	13490717	9.821936	0.337872	0.252902	-0.003686	0.000253	-0.003077
00851	13490767	9.816833	0.337241	0.270414	-0.001760	0.001357	-0.000318
00852	13490817	9.795123	0.346681	0.257120	-0.003307	0.001654	-0.001047
00853	13490867	9.818884	0.344582	0.269938	-0.004839	0.002199	-0.004729
00854	13490917	9.822135	0.348249	0.237224	-0.002501	-0.001492	0.000818
00855	13490967	9.812401	0.334574	0.260461	-0.004161	0.002251	-0.002521
00856	13491017	9.810204	0.358422	0.260414	-0.005523	0.002034	-0.000852
00857	13491067	9.808422	0.338168	0.280379	-0.005441	0.004587	0.000253
00858	13491117	9.814610	0.351232	0.255751	-0.007195	-0.000869	-0.001760
00859	13491167	9.801504	0.356194	0.246580	-0.004149	0.001960	-0.001303
00860	13491217	9.802667	0.346815	0.269041	-0.006798	0.000820	0.000177
00861	13491267	9.807500	0.348734	0.254758	-0.003266	0.004628	0.000086
00862	13491317	9.822969	0.343860	0.266529	-0.005247	0.001163	-0.002617
00863	13491367	9.804781	0.350558	0.266138	-0.002334	-0.001049	-0.003538
00864	13491417	9.796480	0.380738	0.238827	-0.003959	-0.001367	-0.004906
00865	13491467	9.801177	0.349894	0.273162	-0.006312	0.001600	-0.002743
00866	13491517	9.805766	0.355449	0.252059	-0.002689	0.002506	-0.001462
00867	13491567	9.808361	0.353277	0.260194	-0.004411	0.002018	-0.002583
00868	13491617	9.809017	0.338855	0.259741	-0.003556	0.001092	-0.005157
00869	13491667	9.799559	0.365730	0.272400	-0.002186	0.000574	-0.001187
00870	13491717	9.819853	0.346303	0.264654	-0.001073	0.002120	0.001605
00871	13491767	9.812349	0.343097	0.252433	-0.002431	0.000544	0.001536
00872	13491817	9.814622	0.347881	0.258979	-0.002711	0.004083	-0.002801
00873	13491867	9.797769	0.359870	0.265235	-0.003068	0.001303	-0.000284
00874	13491917	9.788622	0.344657	0.273550	-0.003783	-0.001191	0.001600
00875	13491967	9.807353	0.336589	0.264297	-0.007255	0.002902	-0.003887
00876	13492017	9.811195	0.338148	0.255364	-0.005642	0.000414	-0.003230
00877	13492067	9.829990	0.350995	0.271320	-0.004085	-0.000237	-0.002730
00878	13492117	9.820906	0.323042	0.256542	-0.003409	0.001781	-0.001243
00879	13492167	9.803638	0.347623	0.265250	-0.002739	0.002986	-0.001590
00880	13492217	9.800270	0.352810	0.261140	-0.005855	0.000318	-0.001017
00881	13492267	9.809104	0.357736	0.285771	-0.003761	0.001232	0.002920
00882	13492317	9.809085	0.344182	0.277692	-0.003511	0.001100	-0.001854
00883	13492367	9.810041	0.350113	0.264411	-0.004155	-0.001140	-0.002985
00884	13492417	9.830663	0.339243	0.263910	-0.008885	0.001906	-0.003474
00885	13492467	9.810165	0.348221	0.247888	-0.004192	-0.000916	-0.003050
00886	13492517	9.804175	0.340727	0.268390	-0.001643	0.001614	-0.002077
00887	13492567	9.828135	0.342386	0.241099	-0.002708	0.000758	-0.002084
00888	13492617	9.805923	0.361667	0.252523	-0.001372	0.003304	-0.001048
00889	13492667	9.821628	0.349711	0.239106	-0.002167	0.004029	-0.002260
00890	13492717	9.811678	0.337771	0.254558	-0.005008	-0.001416	-0.003467
00891	13492767	9.829978	0.343181	0.249975	-0.003191	0.000977	-0.001923
00892	13492817	9.823736	0.343130	0.259402	-0.004810	0.001696	0.000039
00893	13492867	9.821465	0.341572	0.282489	-0.004744	0.003958	0.002010
00894	13492917	9.823334	0.348140	0.275738	-0.003835	0.003227	-0.001073
00895	13492967	9.820587	0.346754	0.260613	-0.005294	0.003713	-0.003887
00896	13493017	9.816401	0.338816	0.260527	0.000005	-0.000966	-0.000852
00897	13493067	9.818163	0.337710	0.246421	-0.000154	0.000525	0.005087
00898	13493117	9.809608	0.340313	0.238023	-0.003491	-0.000806	-0.001992
00899	13493167	9.802340	0.359165	0.258299	-0.005258	0.002646	-0.003543
00900	13493217	9.796770	0.348114	0.258076	-0.006624	0.000371	-0.001275
00901	13493267	9.812160	0.360336	0.247957	-0.004447	0.003409	0.000114
00902	13493317	9.796199	0.358417	0.252527	-0.002096	-0.000262	-0.002216
00903	13493367	9.828341	0.338894	0.253863	-0.003583	0.001061	-0.002818
00904	13493417	9.820839	0.337345	0.277868	-0.003835	0.002328	0.000330
00905	13493467	9.818336	0.351263	0.268083	-0.005829	0.003711	0.000985
00906	13493517	9.826452	0.333916	0.261978	-0.002910	0.000303	-0.000159
00907	13493567	9.804441	0.365842	0.251555	-0.003582	0.002425	0.000462
00908	13493617	9.798976	0.372321	0.276026	-0.003258	0.001006	-0.001724
00909	13493667	9.814167	0.343040	0.266697	-0.003546	0.003064	-0.004152
00910	13493717	9.823179	0.334577	0.250764	-0.004604	0.001045	-0.002012
00911	13493767	9.818278	0.356551	0.266592	-0.005245	0.001065	-0.004094
00912	13493817	9.792226	0.347808	0.260889	-0.003365	-0.002705	-0.001136
00913	13493867	9.817148	0.350604	0.268722	-0.001833	-0.000575	-0.001296
00914	13493917	9.826836	0.355646	0.271543	-0.005709	0.000610	-0.002494
00915	13493967	9.808848	0.349193	0.266341	-0.004837	0.000633	0.002379
00916	13494017	9.802710	0.350928	0.253522	-0.005972	0.000861	-0.003005
00917	13494067	9.792707	0.345348	0.265744	-0.000940	0.000563	-0.002568
00918	13494117	9.802279	0.357663	0.270882	-0.002152	-0.002421	0.000883
00919	13494167	9.802290	0.334620	0.239351	-0.000906	0.001202	-0.006445
00920	13494217	9.806416	0.358281	0.255802	-0.003433	-0.001644	-0.001901
00921	13494267	9.806326	0.337358	0.273854	-0.005156	0.001524	-0.001304
00922	13494317	9.816738	0.352142	0.254876	-0.005046	0.002047	-0.000307
00923	13494367	9.824183	0.351207	0.246460	-0.003888	0.002032	0.001678
00924	13494417	9.824470	0.354071	0.272750	-0.001897	-0.000286	0.001686
00925	13494467	9.806622	0.358936	0.260915	-0.003852	0.002576	-0.002584
00926	13494517	9.817382	0.335706	0.262061	-0.002152	0.001608	-0.000285
00927	13494567	9.810721	0.334231	0.264309	-0.006440	0.002597	-0.002832
00928	13494617	9.812717	0.348659	0.256750	-0.005800	-0.000590	-0.003080
00929	13494667	9.800722	0.348565	0.272752	-0.005041	0.004312	0.001693
00930	13494717	9.820483	0.336288	0.257869	-0.005860	-0.002559	0.000150
00931	13494767	9.805420	0.346084	0.249438	-0.005585	0.002541	-0.005239
00932	13494817	9.806037	0.349687	0.257734	-0.005019	-0.000188	-0.003777
00933	13494867	9.817921	0.344791	0.271624	-0.004222	0.001918	-0.005371
00934	13494917	9.811362	0.338208	0.267364	-0.002485	0.000791	-0.004035
00935	13494967	9.817715	0.341404	0.274529	-0.003089	0.002015	0.000234
00936	13495017	9.813886	0.343141	0.272525	-0.002626	0.001182	-0.001854
00937	13495067	9.813706	0.344225	0.260756	-0.004565	-0.002146	-0.001579
00938	13495117	9.809519	0.343660	0.245290	-0.003070	0.001403	0.000840
00939	13495167	9.815053	0.360000	0.282191	-0.003609	0.001298	0.000583
00940	13495217	9.803658	0.364382	0.265485	-0.004966	0.002826	0.001780
00941	13495267	9.813006	0.339631	0.268349	-0.003462	0.003392	-0.003090
00942	13495317	9.815140	0.337409	0.274600	-0.004295	0.002572	-0.001141
00943	13495367	9.813754	0.365794	0.248346	-0.006027	0.001801	-0.000174
00944	13495417	9.811382	0.343185	0.253445	-0.003237	0.000264	-0.002791
00945	13495467	9.803176	0.332116	0.255733	-0.001871	0.003842	-0.001138
00946	13495517	9.814128	0.348259	0.261138	-0.002518	0.003124	-0.000050
00947	13495567	9.797837	0.351410	0.270736	-0.004421	0.001737	0.001645
00948	13495617	9.821353	0.360260	0.263208	-0.007085	0.001580	-0.004310
00949	13495667	9.793089	0.360266	0.289134	-0.003838	-0.002142	-0.005428
00950	13495717	9.826059	0.332148	0.252412	-0.006702	0.002918	-0.001066
00951	13495767	9.816810	0.334002	0.281269	-0.003430	0.002619	-0.000725
00952	13495817	9.797075	0.354519	0.272965	-0.004558	0.001788	-0.000981
00953	13495867	9.823524	0.343495	0.253889	-0.006131	0.003056	0.000182
00954	13495917	9.782429	0.353417	0.255729	-0.005528	0.002228	-0.000716
00955	13495967	9.803659	0.350108	0.257377	-0.006200	0.004317	-0.000419
00956	13496017	9.817443	0.339702	0.283087	-0.005244	0.000002	-0.002880
00957	13496067	9.828301	0.326783	0.246891	-0.004199	0.001507	-0.001821
00958	13496117	9.796526	0.340068	0.274369	-0.002149	0.000580	-0.000739
00959	13496167	9.817899	0.326814	0.271679	0.000029	0.001387	-0.001412
00960	13496217	9.815834	0.351344	0.249821	-0.000785	0.001765	-0.001218
00961	13496267	9.826248	0.340297	0.282108	-0.004835	-0.000698	-0.001092
00962	13496317	9.798013	0.341177	0.263063	-0.004407	-0.000043	-0.000866
00963	13496367	9.810681	0.356289	0.264948	-0.002531	0.001341	-0.002786
00964	13496417	9.814553	0.340334	0.286515	-0.003907	0.003451	-0.002031
00965	13496467	9.812834	0.356372	0.262111	-0.002720	0.003271	-0.003483
00966	13496517	9.805493	0.354461	0.259204	-0.002887	0.001366	-0.004067
00967	13496567	9.810023	0.370539	0.264041	-0.000298	0.002610	-0.001564
00968	13496617	9.797017	0.344665	0.263508	-0.002599	-0.001461	0.000566
00969	13496667	9.809630	0.365425	0.260417	-0.006051	0.001310	-0.002423
00970	13496717	9.806870	0.354729	0.267889	-0.002518	0.003155	-0.001782
00971	13496767	9.793973	0.354262	0.274831	-0.004807	0.001431	-0.002295
00972	13496817	9.823305	0.368558	0.277026	-0.003434	-0.001579	-0.002413
00973	13496867	9.805146	0.349679	0.287239	-0.003861	-0.000133	-0.002500
00974	13496917	9.806615	0.340863	0.259931	-0.004753	0.001819	-0.001270
00975	13496967	9.808104	0.353306	0.263326	-0.003771	0.003690	0.003319
00976	13497017	9.803301	0.355636	0.264108	-0.002994	0.003152	0.000879
00977	13497067	9.805292	0.351759	0.259885	-0.003427	-0.001740	-0.001452
00978	13497117	9.809131	0.348220	0.261774	-0.005660	-0.000940	-0.000931
00979	13497167	9.821290	0.349834	0.255333	-0.004072	-0.000492	-0.000321
00980	13497217	9.818150	0.323574	0.277196	-0.005092	0.003858	0.001466
00981	13497267	9.806553	0.337690	0.236717	-0.000086	0.002868	-0.003262
00982	13497317	9.793061	0.334876	0.268605	-0.004312	-0.000077	-0.001983
00983	13497367	9.820381	0.345043	0.258579	-0.005558	-0.000772	0.000833
00984	13497417	9.810307	0.329188	0.263565	-0.003552	0.002426	-0.000565
00985	13497467	9.810524	0.352777	0.256737	-0.006414	-0.000111	0.000809
00986	13497517	9.811354	0.323384	0.259688	0.000725	0.002434	-0.003301
00987	13497567	9.804216	0.357752	0.265189	-0.004681	0.000726	-0.000059
00988	13497617	9.814340	0.351336	0.259237	-0.004647	0.002731	0.001393
00989	13497667	9.793386	0.350863	0.259781	-0.004645	0.002500	-0.000560
00990	13497717	9.827197	0.350588	0.262002	-0.004511	0.002210	-0.002552
00991	13497767	9.825538	0.359021	0.282317	-0.001813	-0.000034	-0.001255
00992	13497817	9.819697	0.322254	0.260867	-0.006276	0.003376	-0.001995
00993	13497867	9.796943	0.353968	0.257167	-0.004345	0.003481	0.000886
00994	13497917	9.834542	0.342788	0.244898	-0.003679	-0.000711	-0.000105
00995	13497967	9.799049	0.343765	0.282744	-0.005835	0.002541	-0.003155
00996	13498017	9.796264	0.350552	0.258292	-0.003685	0.001221	-0.004097
00997	13498067	9.782005	0.347928	0.258368	-0.006506	0.001790	-0.000235
00998	13498117	9.810756	0.330869	0.264981	-0.006318	0.002795	-0.002607
00999	13498167	9.811099	0.324519	0.258999	-0.005133	0.001719	-0.001369
01000	13498217	9.802917	0.344427	0.273320	-0.000569	-0.000044	-0.001835
01001	13498267	9.810436	0.364815	0.247738	-0.003481	0.003166	-0.001489
01002	13498317	9.815431	0.346733	0.285073	-0.005883	0.003386	0.000310
01003	13498367	9.804000	0.354412	0.269771	-0.001925	0.001515	-0.000608
01004	13498417	9.820297	0.331522	0.260835	-0.005996	0.000670	-0.000989
01005	13498467	9.810980	0.351746	0.263015	-0.003763	0.001035	0.001000
01006	13498517	9.807341	0.367140	0.242141	-0.004674	-0.000204	0.003272
01007	13498567	9.794732	0.359075	0.257913	-0.007575	0.003995	-0.004100
01008	13498617	9.799760	0.358934	0.253256	-0.002226	0.001768	-0.002975
01009	13498667	9.789343	0.355738	0.249243	-0.002472	0.002572	-0.001015
01010	13498717	9.795407	0.344209	0.254680	-0.003270	-0.000709	-0.003948
01011	13498767	9.815351	0.341813	0.269473	-0.004005	0.001313	-0.003295
01012	13498817	9.806336	0.355339	0.274711	-0.004908	-0.001540	-0.002501
01013	13498867	9.804097	0.368798	0.263707	-0.000966	-0.000794	-0.002927
01014	13498917	9.811304	0.354211	0.245048	-0.004633	0.003146	-0.001838
01015	13498967	9.815981	0.350056	0.265949	-0.006070	0.003321	0.001141
01016	13499017	9.803535	0.359835	0.257312	-0.001681	0.000942	0.000127
01017	13499067	9.798205	0.352278	0.247486	-0.000448	0.001647	0.001444
01018	13499117	9.807282	0.354600	0.277135	-0.001928	0.000352	-0.002956
01019	13499167	9.811215	0.355384	0.256042	-0.005236	-0.000025	0.000610
01020	13499217	9.813659	0.336256	0.285583	-0.007498	0.001908	0.001430
01021	13499267	9.818592	0.353949	0.260003	-0.004917	0.000407	0.002827
01022	13499317	9.798940	0.363052	0.261413	-0.005466	0.001261	-0.001301
01023	13499367	9.803512	0.345563	0.290618	-0.004307	0.000024	0.000099
01024	13499417	9.812523	0.351114	0.247098	-0.002545	-0.000405	-0.002632
01025	13499467	9.797738	0.347921	0.256201	-0.003926	0.003096	-0.001872
01026	13499517	9.805216	0.359385	0.256077	-0.004791	0.000951	-0.001176
01027	13499567	9.813495	0.338679	0.267741	-0.006887	-0.001606	-0.000837
01028	13499617	9.802139	0.340625	0.252191	-0.004033	-0.002582	0.001238
01029	13499667	9.804320	0.350525	0.264280	-0.004563	0.001823	-0.002424
01030	13499717	9.791666	0.351203	0.267866	-0.002997	-0.001048	0.000252
01031	13499767	9.812574	0.338912	0.262746	-0.005271	0.001172	-0.000501
01032	13499817	9.816232	0.366243	0.271109	-0.001707	0.000551	-0.001896
01033	13499867	9.809507	0.355022	0.277166	-0.006653	0.002466	-0.000837
01034	13499917	9.810264	0.348095	0.257199	0.000086	0.000746	0.000808
01035	13499967	9.806392	0.355334	0.253377	-0.005501	0.001089	-0.003377
01036	13500017	9.817977	0.346287	0.247379	-0.008195	0.002559	-0.001278
01037	13500067	9.821342	0.360757	0.252089	-0.001840	0.001701	-0.002584
01038	13500117	9.793394	0.356603	0.272817	-0.003836	0.000486	0.003348
01039	13500167	9.807886	0.363705	0.264339	-0.002761	0.000522	-0.001849
01040	13500217	9.819700	0.363602	0.279853	-0.003468	-0.001165	-0.000252
01041	13500267	9.805759	0.340351	0.269870	-0.001805	0.001642	-0.002229
01042	13500317	9.806162	0.356054	0.251391	-0.004377	-0.001086	-0.003071
01043	13500367	9.813459	0.353212	0.270263	-0.000099	-0.002715	-0.000335
01044	13500417	9.813410	0.358206	0.268125	-0.006509	-0.000249	-0.000656
01045	13500467	9.804724	0.352280	0.258817	-0.005650	-0.000908	0.000428
01046	13500517	9.819976	0.335832	0.252133	-0.003051	0.001586	-0.002706
01047	13500567	9.814933	0.335808	0.260518	-0.002050	0.001442	-0.001366
01048	13500617	9.811369	0.350537	0.228138	-0.006533	-0.000478	-0.001427
01049	13500667	9.813956	0.353507	0.266972	-0.003435	0.001646	-0.001774
01050	13500717	9.809320	0.347232	0.258876	-0.004620	0.001489	-0.004434
01051	13500767	9.825313	0.327718	0.253486	-0.004184	0.002217	0.000024
01052	13500817	9.796013	0.359435	0.266847	-0.004177	0.000921	-0.000366
01053	13500867	9.814550	0.341795	0.271068	-0.008433	0.002045	0.000356
01054	13500917	9.809011	0.328890	0.268871	-0.005136	-0.001831	0.004013
01055	13500967	9.806361	0.352370	0.263627	-0.004172	-0.000507	-0.003838
01056	13501017	9.799476	0.346717	0.273037	0.000276	-0.000750	-0.005677
01057	13501067	9.801334	0.340010	0.255378	-0.005651	0.004095	-0.001016
01058	13501117	9.800781	0.338824	0.270259	-0.002514	0.003888	-0.002341
01059	13501167	9.822682	0.336137	0.276947	-0.005983	-0.001854	-0.001787
01060	13501217	9.809786	0.346078	0.262667	-0.002865	0.001083	0.002227
01061	13501267	9.793958	0.344632	0.244165	-0.005660	0.003316	-0.001024
01062	13501317	9.789858	0.356759	0.266934	-0.002797	0.005114	0.000805
01063	13501367	9.812076	0.357724	0.254323	-0.001071	0.002851	-0.000235
01064	13501417	9.804356	0.353084	0.279288	-0.008510	0.002856	0.003311
01065	13501467	9.816319	0.335457	0.266569	-0.007266	0.002680	0.000484
01066	13501517	9.812691	0.325193	0.258599	-0.001972	0.001898	-0.001908
01067	13501567	9.803920	0.336873	0.267039	-0.003292	0.000127	-0.002170
01068	13501617	9.814603	0.343924	0.258901	-0.005929	0.003731	-0.001823
01069	13501667	9.813682	0.354374	0.271030	-0.007509	0.001159	0.000668
01070	13501717	9.814021	0.352233	0.258887	-0.006255	0.002821	-0.002212
01071	13501767	9.795494	0.358977	0.237145	-0.001883	0.002089	-0.002383
01072	13501817	9.816475	0.349033	0.252608	-0.003453	0.002159	-0.002704
01073	13501867	9.799156	0.366964	0.244570	-0.004504	0.002340	0.001469
01074	13501917	9.800735	0.350167	0.254139	-0.004882	0.003139	-0.000318
01075	13501967	9.805538	0.358811	0.270071	-0.003473	-0.000066	-0.000790
01076	13502017	9.804806	0.344984	0.262139	-0.006460	0.005399	-0.001265
01077	13502067	9.802298	0.350595	0.270666	-0.000549	0.002139	-0.006170
01078	13502117	9.816699	0.348200	0.257125	-0.003003	0.000107	0.000585
01079	13502167	9.816490	0.325447	0.260346	-0.002343	0.004467	-0.002506
01080	13502217	9.791980	0.354013	0.276172	-0.001249	0.000364	-0.000025
01081	13502267	9.803557	0.337296	0.246757	-0.001467	0.003229	-0.000300
01082	13502317	9.805511	0.353824	0.244174	-0.003634	-0.001397	-0.002205
01083	13502367	9.812817	0.348752	0.266794	-0.003258	0.001162	-0.001875
01084	13502417	9.817486	0.362488	0.255212	-0.003446	0.000003	-0.000826
01085	13502467	9.803634	0.339907	0.267497	-0.005939	-0.000243	-0.002358
01086	13502517	9.806148	0.356633	0.251594	-0.003558	-0.002255	0.002725
01087	13502567	9.804339	0.326206	0.259195	-0.000883	0.002919	-0.001168
01088	13502617	9.801242	0.366398	0.255669	-0.004347	0.005208	-0.002428
01089	13502667	9.795158	0.350152	0.270975	-0.005185	0.003387	-0.003140
01090	13502717	9.809822	0.342232	0.263650	-0.006365	0.000876	-0.004846
01091	13502767	9.812865	0.343482	0.270054	-0.004397	-0.002377	-0.000931
01092	13502817	9.793583	0.365045	0.263945	-0.005205	-0.001395	-0.004864
01093	13502867	9.812105	0.352867	0.259388	-0.005952	0.001507	-0.000554
01094	13502917	9.802176	0.361196	0.269075	-0.003107	-0.002775	-0.001929
01095	13502967	9.813876	0.325871	0.258359	-0.002647	0.000917	-0.000435
01096	13503017	9.816646	0.332849	0.257384	-0.004258	0.001338	-0.001619
01097	13503067	9.825991	0.350742	0.251122	-0.004799	0.001497	0.002071
01098	13503117	9.831107	0.342419	0.248838	-0.006618	0.006136	-0.002163
01099	13503167	9.801151	0.364539	0.274189	-0.005530	-0.000614	0.002225
01100	13503217	9.797912	0.351689	0.246014	-0.007909	0.000700	0.001340
01101	13503267	9.806464	0.364870	0.260762	-0.007650	0.000541	0.000473
01102	13503317	9.812396	0.350354	0.254290	-0.003308	-0.000193	0.000330
01103	13503367	9.795623	0.354408	0.263766	-0.002070	0.002385	0.001946
01104	13503417	9.804312	0.340247	0.273588	-0.008702	0.003425	-0.001369
01105	13503467	9.804034	0.331938	0.256917	-0.000334	-0.001302	0.000089
01106	13503517	9.806586	0.345104	0.281597	-0.004803	-0.000636	-0.001081
01107	13503567	9.816158	0.353460	0.256171	-0.007671	-0.000016	-0.002480
01108	13503617	9.810161	0.360062	0.251006	-0.008721	0.003204	0.000171
01109	13503667	9.811627	0.336128	0.254655	-0.006482	-0.001412	-0.002392
01110	13503717	9.812643	0.362901	0.267170	-0.009473	-0.002363	0.002324
01111	13503767	9.821902	0.330262	0.261622	-0.002910	-0.000931	-0.002208
01112	13503817	9.820817	0.347596	0.246559	-0.003550	-0.000274	-0.005759
01113	13503867	9.816694	0.347990	0.258273	-0.005995	-0.000206	-0.000143
01114	13503917	9.821619	0.351556	0.263124	-0.004804	0.000259	-0.003158
01115	13503967	9.787838	0.368310	0.262432	-0.006326	-0.002691	0.002924
01116	13504017	9.807816	0.349422	0.266076	-0.001621	0.001967	-0.000886
01117	13504067	9.810781	0.356608	0.272950	0.000794	-0.000539	0.000735
01118	13504117	9.801669	0.352592	0.253124	-0.003621	0.001483	0.000439
01119	13504167	9.833815	0.329873	0.261337	-0.006296	0.000044	-0.001233
01120	13504217	9.815049	0.357336	0.274654	-0.004415	-0.000434	0.002317
01121	13504267	9.810077	0.359241	0.265544	-0.002006	0.000960	-0.001494
01122	13504317	9.784724	0.351193	0.260486	-0.004130	0.002209	-0.003947
01123	13504367	9.816011	0.350440	0.248960	-0.005208	0.000066	-0.000722
01124	13504417	9.807899	0.348688	0.254341	-0.003920	0.002799	-0.000453
01125	13504467	9.802469	0.351056	0.279926	-0.007129	-0.001939	-0.001013
01126	13504517	9.826864	0.348207	0.269572	-0.005878	0.000822	-0.001902
01127	13504567	9.812037	0.341386	0.254052	-0.004765	-0.000032	-0.005309
01128	13504617	9.820520	0.345069	0.261726	-0.000402	0.002122	0.001809
01129	13504667	9.825603	0.341294	0.256112	-0.002567	-0.000603	-0.001761
01130	13504717	9.811830	0.367418	0.274645	-0.003400	0.001577	-0.002000
01131	13504767	9.808164	0.351007	0.284308	-0.005753	0.002317	0.000510
01132	13504817	9.803308	0.351107	0.260821	-0.006554	0.002170	-0.002628
01133	13504867	9.794315	0.352496	0.286333	-0.006688	0.004622	-0.000371
01134	13504917	9.804610	0.344606	0.254806	-0.005424	0.000604	-0.003572
01135	13504967	9.805945	0.343619	0.271918	-0.005873	0.005022	-0.003032
01136	13505017	9.798164	0.364169	0.256472	-0.002225	0.000825	-0.001881
01137	13505067	9.824380	0.323035	0.259916	-0.003386	-0.000704	0.001961
01138	13505117	9.800906	0.330659	0.266092	-0.003334	-0.000712	-0.002301
01139	13505167	9.800211	0.350767	0.260787	-0.004997	-0.000445	0.000751
01140	13505217	9.827559	0.354648	0.259064	-0.006898	0.003368	0.003305
01141	13505267	9.830118	0.353307	0.271883	-0.003671	-0.000910	-0.000414
01142	13505317	9.799008	0.367820	0.267005	-0.004517	-0.001670	-0.000954
01143	13505367	9.807452	0.345769	0.255778	-0.006063	0.001856	-0.001127
01144	13505417	9.791517	0.343864	0.256348	-0.003675	0.002291	-0.000456
01145	13505467	9.806896	0.353182	0.253398	-0.003923	0.002926	-0.001543
01146	13505517	9.801935	0.352967	0.247439	-0.002955	0.003620	-0.003079
01147	13505567	9.806860	0.350382	0.264200	-0.005684	0.004093	-0.001401
01148	13505617	9.824363	0.348888	0.248538	-0.004154	0.003345	0.000094
01149	13505667	9.799941	0.337950	0.253205	-0.002123	0.003633	-0.003115
01150	13505717	9.810081	0.348461	0.248296	-0.002311	-0.000429	0.000965
01151	13505767	9.826191	0.348745	0.261658	-0.003796	0.002123	-0.000266
01152	13505817	9.819655	0.360389	0.254887	-0.005126	-0.001580	-0.000188
01153	13505867	9.813247	0.336961	0.260101	-0.005244	0.002491	0.001212
01154	13505917	9.790235	0.346071	0.266937	-0.008204	0.002754	-0.000537
01155	13505967	9.808836	0.340307	0.273518	-0.003994	0.003184	-0.001509
01156	13506017	9.791338	0.354661	0.263249	-0.003814	0.000610	0.000591
01157	13506067	9.792302	0.352866	0.263959	0.001403	-0.000596	-0.002021
01158	13506117	9.794426	0.351862	0.270875	-0.007366	-0.000557	-0.003281
01159	13506167	9.812432	0.345793	0.259063	-0.005500	0.001057	-0.002544
01160	13506217	9.801640	0.343996	0.273213	-0.000913	0.000821	-0.001366
01161	13506267	9.827152	0.349475	0.259051	-0.002510	0.001890	0.000046
01162	13506317	9.808921	0.357614	0.263143	-0.005354	-0.000588	-0.002937
01163	13506367	9.810302	0.345183	0.256431	-0.005620	-0.000339	-0.005146
01164	13506417	9.808398	0.364228	0.257612	-0.001360	-0.000089	0.000067
01165	13506467	9.801386	0.364622	0.273732	-0.000007	0.000741	0.000297
01166	13506517	9.804871	0.354620	0.269469	-0.001879	0.002964	-0.002350
01167	13506567	9.811857	0.347371	0.271321	-0.003521	0.000922	-0.006140
01168	13506617	9.793777	0.357789	0.247223	-0.003474	0.003070	-0.000451
01169	13506667	9.812627	0.357466	0.241801	-0.002931	-0.000124	-0.001656
01170	13506717	9.809737	0.347431	0.268085	-0.004915	0.002643	-0.005934
01171	13506767	9.807919	0.349192	0.250928	-0.004097	0.000308	-0.001781
01172	13506817	9.811028	0.360397	0.263635	-0.004439	0.000047	-0.000950
01173	13506867	9.818886	0.357079	0.271680	-0.000412	0.000084	-0.002369
01174	13506917	9.820996	0.346169	0.259566	-0.004873	0.000519	-0.002803
01175	13506967	9.799376	0.360475	0.261355	-0.006035	0.004251	0.000777
01176	13507017	9.805603	0.342974	0.252555	-0.004187	-0.000951	-0.001082
01177	13507067	9.821583	0.331580	0.233667	-0.003233	0.001325	-0.001075
01178	13507117	9.794502	0.353219	0.255568	-0.003719	0.001411	-0.002927
01179	13507167	9.818839	0.353377	0.247124	-0.005158	0.002683	0.000063
01180	13507217	9.810816	0.344428	0.253589	0.001924	0.001228	-0.000381
01181	13507267	9.815455	0.332049	0.259306	-0.004821	0.000945	-0.000656
01182	13507317	9.813760	0.335115	0.258367	-0.003365	-0.000581	-0.001115
01183	13507367	9.815497	0.350406	0.254783	-0.000387	0.002439	-0.001524
01184	13507417	9.795849	0.358397	0.257066	-0.000280	0.002319	0.000626
01185	13507467	9.817262	0.339927	0.260010	-0.004033	0.000080	-0.004280
01186	13507517	9.818244	0.341668	0.250915	-0.000249	0.001153	0.001162
01187	13507567	9.810807	0.339323	0.265299	-0.002976	-0.000936	-0.004261
01188	13507617	9.792151	0.361369	0.233317	-0.000950	0.001945	-0.001167
01189	13507667	9.820057	0.345385	0.258955	-0.005478	-0.002845	-0.001857
01190	13507717	9.810579	0.346606	0.248333	-0.005767	0.001802	0.000987
01191	13507767	9.810515	0.348418	0.255746	-0.003506	0.001969	-0.001098
01192	13507817	9.817895	0.340293	0.272202	-0.004743	0.000195	-0.004951
01193	13507867	9.794881	0.362093	0.253034	-0.004382	0.005306	-0.003098
01194	13507917	9.812384	0.347392	0.263176	-0.003435	0.001612	-0.002290
01195	13507967	9.798065	0.361201	0.279298	-0.004416	0.001501	-0.000813
01196	13508017	9.819642	0.365797	0.245882	-0.007041	0.001290	-0.000777
01197	13508067	9.810395	0.333339	0.265764	-0.003434	-0.001618	-0.002657
01198	13508117	9.821038	0.339949	0.264845	-0.004527	0.002719	-0.003499
01199	13508167	9.831102	0.324597	0.248569	-0.004705	-0.001963	-0.001892
01200	13508217	9.800887	0.333482	0.264274	-0.003265	0.002322	-0.002864
01201	13508267	9.795211	0.342738	0.237222	-0.000522	0.005065	0.002881
01202	13508317	9.787923	0.348173	0.250360	-0.001863	0.001906	0.002678
01203	13508367	9.802779	0.347206	0.276357	-0.001917	0.000689	-0.007263
01204	13508417	9.793890	0.365322	0.252029	-0.005054	0.002556	0.000060
01205	13508467	9.801067	0.349071	0.279754	-0.002281	0.000633	-0.000598
01206	13508517	9.817084	0.340815	0.247693	-0.000104	-0.000491	0.000192
01207	13508567	9.801202	0.328221	0.262075	-0.002129	0.002091	0.000818
01208	13508617	9.808052	0.328512	0.269576	-0.003906	-0.002688	-0.000806
01209	13508667	9.829755	0.338834	0.244401	-0.003135	0.002428	0.000022
01210	13508717	9.797254	0.346935	0.284856	-0.004410	0.001107	-0.002418
01211	13508767	9.808938	0.345202	0.246182	-0.006121	0.001860	0.000764
01212	13508817	9.784234	0.366415	0.270916	-0.001264	-0.002292	-0.002570
01213	13508867	9.809087	0.351540	0.249229	-0.003745	0.000286	-0.001109
01214	13508917	9.798956	0.338752	0.257076	0.000141	0.005031	-0.001447
01215	13508967	9.802616	0.343839	0.270580	-0.002518	0.000013	-0.001435
01216	13509017	9.828870	0.332661	0.245607	-0.004404	0.000886	-0.001394
01217	13509067	9.812217	0.347483	0.290031	-0.003390	0.001161	-0.001873
01218	13509117	9.813690	0.350811	0.276162	-0.002544	0.002721	-0.003149
01219	13509167	9.810019	0.363198	0.266586	-0.003280	0.004004	-0.001091
01220	13509217	9.808886	0.364528	0.255094	-0.002413	0.003797	0.000250
01221	13509267	9.793339	0.369393	0.256088	-0.001781	0.002829	-0.004336
01222	13509317	9.792052	0.356675	0.259625	-0.004678	-0.000575	-0.002136
01223	13509367	9.804611	0.358222	0.266033	-0.001991	-0.000723	-0.002497
01224	13509417	9.809772	0.334800	0.249177	-0.005917	-0.003083	-0.002564
01225	13509467	9.809307	0.332005	0.252887	-0.006392	0.001278	0.001273
01226	13509517	9.806365	0.339972	0.250210	-0.006387	-0.001285	-0.002584
01227	13509567	9.807888	0.356686	0.278719	-0.007168	0.000880	0.003743
01228	13509617	9.815818	0.355209	0.269808	-0.001284	0.000325	-0.002751
01229	13509667	9.822253	0.345383	0.249113	-0.003765	-0.003172	-0.001322
01230	13509717	9.818439	0.352548	0.275353	-0.004870	0.001356	-0.003796
01231	13509767	9.804626	0.357847	0.225129	-0.001122	0.001329	-0.001398
01232	13509817	9.800358	0.333794	0.272348	-0.002144	0.001312	-0.001780
01233	13509867	9.812394	0.360243	0.273945	-0.004534	0.001109	0.000656
01234	13509917	9.802566	0.337001	0.254817	-0.007001	-0.000204	-0.003123
01235	13509967	9.792581	0.349730	0.264985	-0.004276	0.000986	-0.001139
01236	13510017	9.812256	0.345031	0.249948	-0.004331	-0.000446	-0.002812
01237	13510067	9.810075	0.354766	0.274468	-0.004468	0.003141	0.000060
01238	13510117	9.827011	0.343646	0.293977	-0.003273	0.001279	-0.005472
01239	13510167	9.793475	0.356418	0.260062	-0.003513	-0.000846	0.000583
01240	13510217	9.809169	0.338430	0.262336	0.000293	0.005122	-0.004014
01241	13510267	9.815022	0.359749	0.273192	-0.004155	0.001473	0.001171
01242	13510317	9.813807	0.354203	0.250691	-0.003275	0.001873	0.000913
01243	13510367	9.803702	0.353614	0.268895	-0.003592	-0.000623	-0.002687
01244	13510417	9.822622	0.337386	0.245085	-0.000882	-0.000354	-0.001829
01245	13510467	9.813068	0.344160	0.274913	-0.007739	-0.000855	-0.002133
01246	13510517	9.811018	0.347071	0.252976	-0.004166	0.004628	-0.001857
01247	13510567	9.816304	0.359169	0.260960	-0.002675	0.001550	-0.004216
01248	13510617	9.807080	0.342208	0.284385	-0.005609	0.004835	-0.002173
01249	13510667	9.807200	0.349160	0.250977	0.001023	0.001398	-0.000539
01250	13510717	9.801720	0.350666	0.287481	-0.003780	0.003771	0.001121
01251	13510767	9.831937	0.348689	0.255637	-0.001655	0.000092	-0.000511
01252	13510817	9.826091	0.351967	0.271459	-0.008355	0.000193	-0.002701
01253	13510867	9.816814	0.350711	0.271608	-0.004643	0.004356	-0.004706
01254	13510917	9.819073	0.340034	0.236098	-0.004885	0.002137	0.000216
01255	13510967	9.814760	0.343777	0.271874	-0.005090	0.005417	-0.002779
01256	13511017	9.812064	0.342677	0.247141	-0.003986	0.001924	-0.000654
01257	13511067	9.790796	0.345729	0.291853	-0.005302	0.003321	0.000449
01258	13511117	9.789911	0.352532	0.267536	-0.006265	-0.000057	-0.002194
01259	13511167	9.807363	0.361577	0.237597	-0.004060	0.002641	0.002716
01260	13511217	9.813276	0.341687	0.284983	-0.004171	0.001462	-0.003768
01261	13511267	9.814823	0.359872	0.227919	-0.005964	0.000722	-0.002450
01262	13511317	9.801904	0.354945	0.287672	-0.001451	0.002910	0.000852
01263	13511367	9.818883	0.351114	0.244222	-0.003819	0.000434	-0.002843
01264	13511417	9.802643	0.357922	0.277331	-0.002676	0.001078	0.000716
01265	13511467	9.795882	0.354618	0.259297	-0.004884	0.004070	-0.002304
01266	13511517	9.816176	0.351515	0.257815	-0.003931	0.000145	-0.000472
01267	13511567	9.817183	0.336748	0.279449	-0.003646	0.001249	-0.000691
01268	13511617	9.826793	0.339041	0.222130	-0.005729	0.000513	0.003794
01269	13511667	9.828471	0.328028	0.320845	-0.005431	0.002956	-0.003946
01270	13511717	9.805766	0.358168	0.233293	-0.005639	0.004800	0.000554
01271	13511767	9.784532	0.380359	0.271729	-0.003391	0.002316	-0.003151
01272	13511817	9.809627	0.355836	0.267105	-0.002703	0.005079	-0.000479
01273	13511867	9.829329	0.355111	0.240540	-0.005610	0.000568	-0.001684
01274	13511917	9.799904	0.356916	0.298465	-0.004653	0.001713	-0.003089
01275	13511967	9.781349	0.370619	0.228764	-0.004017	0.000623	-0.004854
01276	13512017	9.806424	0.340210	0.279274	-0.002563	0.003597	-0.000197
01277	13512067	9.803915	0.343367	0.254496	-0.003095	-0.001195	-0.001824
01278	13512117	9.820528	0.349574	0.252338	0.001068	0.000811	-0.002441
01279	13512167	9.800155	0.353332	0.265153	-0.005329	0.002061	-0.001128
01280	13512217	9.830534	0.346734	0.256797	-0.004512	0.000202	-0.001785
01281	13512267	9.804423	0.337835	0.260881	-0.003407	0.002965	-0.001261
01282	13512317	9.813107	0.351619	0.252819	-0.001985	-0.000950	-0.002374
01283	13512367	9.804295	0.356432	0.283659	-0.004026	0.003309	-0.001352
01284	13512417	9.806707	0.343309	0.265183	-0.005241	0.004058	-0.003588
01285	13512467	9.804143	0.341621	0.259138	-0.006024	0.000694	0.000115
01286	13512517	9.794696	0.345033	0.278631	-0.003366	0.004676	-0.002047
01287	13512567	9.811277	0.354711	0.233917	-0.002160	-0.000206	-0.000831
01288	13512617	9.800227	0.348621	0.263733	-0.001906	0.003055	0.000438
01289	13512667	9.820511	0.342599	0.229822	-0.004180	0.001787	-0.002064
01290	13512717	9.808494	0.347818	0.275869	-0.005772	0.001829	-0.000937
01291	13512767	9.806902	0.349946	0.259064	-0.004966	0.000422	0.000078
01292	13512817	9.818994	0.348793	0.269849	-0.000858	0.003074	-0.001650
01293	13512867	9.819176	0.353533	0.269420	-0.001274	0.002325	-0.001238
01294	13512917	9.828773	0.337572	0.252113	-0.001596	0.003221	-0.001395
01295	13512967	9.805428	0.363022	0.278562	-0.000188	0.002246	-0.002293
01296	13513017	9.816037	0.344758	0.254968	-0.004362	-0.001379	-0.000896
01297	13513067	9.812883	0.336528	0.243513	-0.005293	0.001805	-0.001162
01298	13513117	9.797660	0.350393	0.289639	-0.000645	0.002527	-0.002035
01299	13513167	9.818020	0.351306	0.268622	-0.003055	0.002203	0.002744
01300	13513217	9.813008	0.350826	0.270769	-0.003234	-0.000583	-0.001118
01301	13513267	9.801687	0.363514	0.266502	-0.005836	-0.000138	0.000818
01302	13513317	9.827057	0.342788	0.249209	-0.000611	0.001433	-0.000567
01303	13513367	9.807432	0.326089	0.259927	-0.002521	0.003912	-0.004268
01304	13513417	9.811456	0.346938	0.259781	-0.003298	0.000222	-0.001369
01305	13513467	9.802830	0.372366	0.256565	-0.002706	0.002842	-0.004052
01306	13513517	9.801468	0.360449	0.269960	-0.003375	0.003769	-0.003240
01307	13513567	9.805244	0.352673	0.251752	-0.005684	0.002185	-0.000199
01308	13513617	9.797651	0.350282	0.251999	-0.003622	0.002442	-0.003373
01309	13513667	9.805157	0.342803	0.247199	-0.002766	0.001782	-0.002645
01310	13513717	9.804226	0.335535	0.258189	-0.003611	0.003085	-0.003083
01311	13513767	9.814094	0.345677	0.259972	-0.001448	0.000809	0.002538
01312	13513817	9.796671	0.351833	0.253947	-0.005150	0.000285	-0.000819
01313	13513867	9.808395	0.340575	0.267484	-0.005349	0.000511	0.000593
01314	13513917	9.816723	0.327129	0.257137	-0.000162	-0.001854	-0.001998
01315	13513967	9.815177	0.339824	0.250163	-0.003619	-0.000755	-0.002306
01316	13514017	9.805779	0.342883	0.261953	-0.001866	-0.001723	-0.003240
01317	13514067	9.824748	0.349212	0.263401	-0.000935	0.003620	-0.002128
01318	13514117	9.822460	0.340088	0.266645	-0.003888	-0.001140	0.000580
01319	13514167	9.810830	0.337821	0.264630	-0.004738	0.001719	0.001172
01320	13514217	9.796677	0.368057	0.259222	-0.003230	0.003519	-0.000162
01321	13514267	9.808288	0.327677	0.271819	-0.001395	0.002071	0.001074
01322	13514317	9.811352	0.339760	0.252001	-0.001524	0.002961	-0.002100
01323	13514367	9.821494	0.329186	0.251895	-0.003447	0.002027	-0.001811
01324	13514417	9.813587	0.351116	0.254056	-0.005181	0.001088	-0.002162
01325	13514467	9.806306	0.349209	0.280022	-0.006765	0.001772	-0.002025
01326	13514517	9.804172	0.360704	0.255095	-0.003278	0.004808	-0.001439
01327	13514567	9.815413	0.349938	0.269377	-0.002513	-0.000253	-0.002655
01328	13514617	9.800656	0.372475	0.261077	-0.004148	0.002913	-0.004234
01329	13514667	9.811165	0.353198	0.255268	-0.002696	0.002622	-0.000458
01330	13514717	9.819361	0.321869	0.265519	-0.002601	0.000456	-0.002977
01331	13514767	9.822922	0.337455	0.274143	-0.004467	0.002649	-0.005231
01332	13514817	9.804365	0.357092	0.270135	-0.007336	0.000801	0.000311
01333	13514867	9.799074	0.354731	0.244510	-0.005735	-0.000070	0.003414
01334	13514917	9.774797	0.358304	0.272677	-0.005481	-0.000036	0.001909
01335	13514967	9.810879	0.343658	0.243992	-0.001685	-0.000139	-0.002463
01336	13515017	9.800182	0.344082	0.278913	-0.004143	0.004052	-0.000162
01337	13515067	9.810109	0.346820	0.246883	-0.003102	0.001427	0.000686
01338	13515117	9.790235	0.368287	0.258932	0.000720	-0.000063	-0.000738
01339	13515167	9.810475	0.353323	0.251283	-0.005928	0.003333	-0.004869
01340	13515217	9.805455	0.359790	0.242053	-0.002312	0.000497	-0.001657
01341	13515267	9.807846	0.350268	0.259579	-0.000411	0.002012	-0.003194
01342	13515317	9.789503	0.350429	0.260464	-0.004897	0.003554	-0.001442
01343	13515367	9.792866	0.355636	0.244928	-0.004505	-0.002730	0.001763
01344	13515417	9.826094	0.336400	0.262892	-0.003932	0.001213	-0.000212
01345	13515467	9.807012	0.340937	0.259646	-0.004842	0.001813	0.001110
01346	13515517	9.793346	0.351015	0.252999	-0.005274	0.002588	0.003874
01347	13515567	9.812061	0.355881	0.259851	-0.006832	0.001102	0.001529
01348	13515617	9.807472	0.373894	0.272783	-0.003706	0.002678	0.003100
01349	13515667	9.805836	0.341457	0.255221	-0.002834	-0.001158	-0.000769
01350	13515717	9.804145	0.369867	0.278917	-0.001759	-0.001819	-0.001737
01351	13515767	9.805000	0.335713	0.248160	-0.005995	0.002594	-0.002024
01352	13515817	9.814387	0.340204	0.260835	-0.004063	0.002799	0.004031
01353	13515867	9.802189	0.364144	0.261302	-0.007155	0.001124	-0.000551
01354	13515917	9.804834	0.349067	0.247783	-0.003903	-0.000490	0.002635
01355	13515967	9.809555	0.333859	0.248600	-0.001575	0.002444	-0.002103
01356	13516017	9.812578	0.351597	0.261782	-0.004566	0.002272	0.000920
01357	13516067	9.811430	0.334788	0.249566	-0.005341	0.002382	-0.000331
01358	13516117	9.802033	0.333349	0.270718	-0.003408	0.001936	0.000112
01359	13516167	9.829597	0.348094	0.251257	-0.004792	-0.001292	-0.003584
01360	13516217	9.812293	0.350008	0.272683	-0.003479	-0.001940	0.001026
01361	13516267	9.815475	0.346209	0.266578	-0.002606	0.003981	-0.000290
01362	13516317	9.820801	0.343523	0.257549	-0.002405	0.000366	-0.001822
01363	13516367	9.805211	0.346421	0.269848	-0.004299	-0.002376	-0.000291
01364	13516417	9.817306	0.336794	0.259241	-0.005338	-0.001005	-0.001499
01365	13516467	9.795259	0.350609	0.253929	-0.005762	0.002504	0.000669
01366	13516517	9.795419	0.343619	0.280295	-0.003896	0.002086	-0.002255
01367	13516567	9.808605	0.337882	0.278038	-0.005998	-0.000247	-0.002714
01368	13516617	9.818014	0.337188	0.259313	-0.005419	0.000971	0.003030
01369	13516667	9.814336	0.346998	0.257236	-0.005553	0.002991	-0.001222
01370	13516717	9.809789	0.345680	0.263852	-0.004902	-0.000485	-0.000181
01371	13516767	9.815582	0.339829	0.261712	-0.006841	0.001391	0.000726
01372	13516817	9.824430	0.333615	0.269128	-0.006511	0.004308	0.003628
01373	13516867	9.817441	0.348184	0.252161	-0.003293	0.003124	-0.004524
01374	13516917	9.804469	0.354045	0.259372	-0.003990	0.000786	-0.003321
01375	13516967	9.809514	0.355794	0.249057	-0.001422	0.003168	0.001688
01376	13517017	9.811362	0.336819	0.256644	-0.003009	-0.000969	-0.003173
01377	13517067	9.789493	0.349683	0.264005	-0.004987	0.002389	-0.000039
01378	13517117	9.818249	0.342498	0.249681	-0.001813	-0.000274	-0.003364
01379	13517167	9.808556	0.336831	0.249227	-0.006966	0.001131	0.000633
01380	13517217	9.814359	0.361421	0.262169	-0.005694	0.000339	-0.000373
01381	13517267	9.824983	0.339238	0.245864	-0.004189	0.000143	-0.000344
01382	13517317	9.820178	0.354612	0.259280	-0.004148	0.003146	0.000507
01383	13517367	9.808451	0.346168	0.247570	-0.002712	-0.001125	-0.001251
01384	13517417	9.821485	0.349948	0.288468	-0.005456	-0.002299	-0.000741
01385	13517467	9.815661	0.344026	0.239242	-0.006697	0.001713	-0.000902
01386	13517517	9.805779	0.339142	0.269382	-0.006349	-0.000316	-0.000980
01387	13517567	9.801006	0.355783	0.276375	-0.006599	-0.000154	0.000562
01388	13517617	9.813671	0.333715	0.274961	-0.005572	0.003573	-0.001122
01389	13517667	9.793338	0.342963	0.271307	-0.004263	-0.001667	-0.001119
01390	13517717	9.798707	0.354698	0.264978	-0.001931	0.003159	0.002907
01391	13517767	9.792523	0.372268	0.267088	-0.006131	0.000882	-0.001741
01392	13517817	9.807650	0.350784	0.251417	-0.002734	-0.000282	0.000487
01393	13517867	9.807176	0.351915	0.287792	-0.003098	0.005294	-0.002433
01394	13517917	9.807872	0.349996	0.256302	-0.005054	0.004424	-0.000089
01395	13517967	9.813804	0.355191	0.248483	-0.005288	0.000736	0.000564
01396	13518017	9.803608	0.343760	0.264448	-0.006281	0.002684	-0.002598
01397	13518067	9.790545	0.349981	0.246680	-0.002604	-0.001316	-0.001024
01398	13518117	9.798462	0.355952	0.263746	-0.004824	0.002199	0.000119
01399	13518167	9.815075	0.354301	0.274904	-0.005565	0.002644	0.002081
01400	13518217	9.811539	0.323453	0.255192	-0.004286	-0.000531	0.002123
01401	13518267	9.816344	0.327923	0.277987	-0.002714	0.000238	0.001640
01402	13518317	9.820830	0.348534	0.242736	-0.004723	0.000839	-0.002424
01403	13518367	9.820018	0.351069	0.292719	-0.007448	-0.003209	-0.002370
01404	13518417	9.813498	0.346568	0.276578	-0.002950	-0.000616	-0.002274
01405	13518467	9.835546	0.338411	0.232847	-0.004581	0.000457	-0.000502
01406	13518517	9.831066	0.336094	0.269090	-0.003295	0.001256	-0.000564
01407	13518567	9.801586	0.354376	0.262084	-0.003274	0.003812	-0.000870
01408	13518617	9.816383	0.349186	0.267664	0.001133	0.000044	0.001372
01409	13518667	9.812858	0.351211	0.294810	-0.005206	0.001963	-0.002474
01410	13518717	9.800072	0.337206	0.271814	-0.004693	-0.001228	-0.003232
01411	13518767	9.805279	0.341306	0.268720	-0.004691	0.000938	-0.001812
01412	13518817	9.793769	0.349742	0.265414	-0.008234	0.001719	-0.001989
01413	13518867	9.803249	0.359539	0.251796	-0.002974	0.004490	-0.001572
01414	13518917	9.809516	0.342152	0.275666	-0.001851	0.000151	-0.000447
01415	13518967	9.811094	0.347437	0.241373	-0.004251	0.002112	-0.001356
01416	13519017	9.808507	0.370762	0.265236	-0.009396	0.005348	0.000086
01417	13519067	9.824071	0.341206	0.273359	-0.003570	0.000896	-0.001463
01418	13519117	9.792796	0.341266	0.246266	-0.004058	0.001948	-0.002863
01419	13519167	9.806475	0.364433	0.260538	-0.004956	0.000292	-0.000049
01420	13519217	9.797775	0.355752	0.258882	-0.004915	0.000069	-0.000148
01421	13519267	9.795685	0.351107	0.259930	-0.003697	0.001568	-0.004534
01422	13519317	9.804607	0.336231	0.273286	-0.004927	0.003192	-0.002791
01423	13519367	9.791633	0.361757	0.239066	-0.004082	0.002856	-0.001833
01424	13519417	9.818790	0.347864	0.266093	-0.006408	0.002787	0.000572
01425	13519467	9.804140	0.352265	0.276858	-0.003892	0.000860	-0.000849
01426	13519517	9.815263	0.351392	0.252350	-0.004315	0.000943	-0.002933
01427	13519567	9.828242	0.351192	0.271409	-0.002843	0.000638	-0.007010
01428	13519617	9.812383	0.344279	0.231104	-0.001983	0.002475	-0.000082
01429	13519667	9.802844	0.342800	0.274468	-0.003094	0.001164	-0.000241
01430	13519717	9.808242	0.340961	0.291924	-0.004289	-0.000571	-0.000475
01431	13519767	9.816120	0.348612	0.234178	-0.002442	0.003824	0.000633
01432	13519817	9.811680	0.347364	0.261457	-0.004651	0.000655	-0.000948
01433	13519867	9.792400	0.362026	0.256016	-0.007764	0.005118	-0.002289
01434	13519917	9.812613	0.338602	0.257103	-0.003679	0.003555	0.000670
01435	13519967	9.806677	0.348713	0.272339	-0.001691	-0.000938	-0.002655
01436	13520017	9.799973	0.358108	0.258616	-0.004891	0.003466	-0.000898
01437	13520067	9.819238	0.338060	0.265602	-0.003208	-0.000342	0.000004
01438	13520117	9.810909	0.346626	0.246481	-0.001606	0.002260	-0.004434
01439	13520167	9.803310	0.356189	0.261881	-0.004797	0.002339	-0.000229
01440	13520217	9.809721	0.353643	0.270554	-0.005724	0.005220	-0.004345
01441	13520267	9.826865	0.349354	0.241534	-0.006062	-0.000134	0.000209
01442	13520317	9.797976	0.345502	0.259266	-0.003237	0.000425	-0.001524
01443	13520367	9.791107	0.361601	0.260979	-0.007132	0.002129	-0.003270
01444	13520417	9.804776	0.341532	0.247366	-0.003573	0.006166	-0.002903
01445	13520467	9.809690	0.349154	0.284802	-0.005517	0.001544	-0.003117
01446	13520517	9.807191	0.365489	0.231889	-0.004331	0.001502	-0.002736
01447	13520567	9.817250	0.335984	0.282515	-0.005102	-0.002648	-0.004166
01448	13520617	9.817060	0.339711	0.267023	-0.003897	-0.000910	-0.001055
01449	13520667	9.814049	0.347212	0.238564	-0.004396	0.001732	-0.001742
01450	13520717	9.812644	0.358602	0.287970	-0.004803	0.000364	-0.002968
01451	13520767	9.816359	0.335218	0.235496	0.001835	0.003968	-0.002164
01452	13520817	9.827696	0.355717	0.286718	-0.002825	0.003596	-0.002921
01453	13520867	9.812922	0.344488	0.271674	-0.004391	0.001770	0.001815
01454	13520917	9.798147	0.354626	0.252752	-0.003639	0.001907	-0.002382
01455	13520967	9.801426	0.348090	0.275339	-0.003099	0.002535	0.002107
01456	13521017	9.813685	0.348420	0.218179	-0.004358	0.000639	0.001201
01457	13521067	9.807112	0.348160	0.279988	-0.003245	-0.001450	-0.002719
01458	13521117	9.799394	0.326907	0.261246	-0.004066	0.003780	0.001443
01459	13521167	9.821165	0.346730	0.244474	-0.003003	0.000175	-0.000727
01460	13521217	9.811800	0.361512	0.304462	-0.003144	0.001953	0.001112
01461	13521267	9.813496	0.355344	0.233498	-0.006919	-0.000348	0.000115
01462	13521317	9.822720	0.354112	0.286219	-0.005195	0.002014	0.000698
01463	13521367	9.794468	0.340664	0.259919	-0.003535	-0.000089	0.001326
01464	13521417	9.817925	0.352966	0.254133	-0.003821	0.001745	-0.000845
01465	13521467	9.786721	0.340606	0.280870	-0.002567	0.000238	-0.003964
01466	13521517	9.811805	0.346058	0.218687	-0.005335	0.003069	-0.001827
01467	13521567	9.806129	0.349185	0.283213	-0.004708	0.004124	0.003308
01468	13521617	9.812740	0.345058	0.261399	-0.006195	0.002791	-0.004679
01469	13521667	9.796029	0.357091	0.243830	-0.002925	-0.002148	0.000769
01470	13521717	9.806355	0.350257	0.282682	-0.004242	0.000895	-0.002260
01471	13521767	9.803892	0.348400	0.222082	-0.005980	0.000823	-0.005456
01472	13521817	9.795747	0.346579	0.310050	-0.007461	0.000777	0.001501
01473	13521867	9.789203	0.375527	0.231787	-0.004558	0.001659	-0.003660
01474	13521917	9.803672	0.347685	0.258666	-0.004260	-0.001721	-0.000957
01475	13521967	9.805749	0.344408	0.276243	0.000080	-0.000291	-0.002405
01476	13522017	9.822628	0.349208	0.233977	-0.005515	0.000845	0.000755
01477	13522067	9.810271	0.345735	0.313627	-0.005697	0.002580	-0.000994
01478	13522117	9.819546	0.353213	0.222261	-0.000029	0.002230	-0.000595
01479	13522167	9.823576	0.346491	0.277339	-0.005451	0.000873	-0.000016
01480	13522217	9.813144	0.364124	0.272976	-0.005130	-0.002412	0.000387
01481	13522267	9.824029	0.343055	0.250460	-0.003529	0.000654	0.001133
01482	13522317	9.812271	0.349192	0.291306	-0.006751	0.001530	0.000895
01483	13522367	9.828931	0.341841	0.229806	-0.003673	-0.003099	-0.002029
01484	13522417	9.810555	0.350469	0.296308	-0.007116	0.001042	0.001629
01485	13522467	9.814892	0.357305	0.235675	-0.004700	0.000107	-0.002331
01486	13522517	9.810201	0.334173	0.270886	0.000836	-0.000115	-0.003561
01487	13522567	9.791261	0.351976	0.294755	-0.004899	0.001462	-0.002188
01488	13522617	9.811760	0.354703	0.207183	-0.001710	0.003042	0.001626
01489	13522667	9.817883	0.346547	0.313452	-0.003735	-0.000838	-0.000571
01490	13522717	9.816504	0.355169	0.248925	-0.003824	0.003837	-0.002503
01491	13522767	9.810410	0.353193	0.275979	-0.002563	0.001706	0.000851
01492	13522817	9.806664	0.359200	0.253462	-0.005504	0.001323	-0.001964
01493	13522867	9.813336	0.346186	0.239307	-0.006736	0.003047	0.000291
01494	13522917	9.821175	0.338159	0.298729	-0.002673	0.001754	-0.003830
01495	13522967	9.822986	0.350618	0.210309	-0.003912	0.003644	-0.001731
01496	13523017	9.803909	0.351253	0.291111	-0.005611	-0.000327	-0.001941
01497	13523067	9.796936	0.371614	0.260722	-0.005219	0.002357	-0.002727
01498	13523117	9.825973	0.354652	0.259631	-0.000601	0.002089	-0.001781
01499	13523167	9.802550	0.352845	0.277620	-0.001523	0.000942	-0.000920
01500	13523217	9.816768	0.360669	0.232548	-0.004802	0.001270	-0.001650
01501	13523267	9.798979	0.346959	0.288712	-0.003060	0.002011	-0.002316
01502	13523317	9.807814	0.354164	0.230958	-0.004084	0.002801	-0.002182
01503	13523367	9.802196	0.363099	0.273775	-0.003918	-0.000164	-0.000500
01504	13523417	9.826676	0.333851	0.264822	-0.002916	0.000472	0.000171
01505	13523467	9.816756	0.339366	0.240458	-0.004743	0.001498	-0.001226
01506	13523517	9.820619	0.332228	0.285172	-0.004495	-0.001074	0.002029
01507	13523567	9.816840	0.336069	0.232461	-0.004926	0.004762	0.002025
01508	13523617	9.784016	0.352016	0.271949	-0.002920	-0.000602	-0.001401
01509	13523667	9.792717	0.370451	0.252230	-0.001734	0.004777	-0.001219
01510	13523717	9.801904	0.356223	0.258947	-0.001012	-0.000045	-0.001115
01511	13523767	9.802557	0.352939	0.274550	-0.004246	-0.000171	-0.000726
01512	13523817	9.807380	0.347334	0.239331	-0.004517	0.001472	-0.001103
01513	13523867	9.794844	0.355006	0.286222	-0.001473	-0.001640	-0.000934
01514	13523917	9.823202	0.332167	0.251707	-0.003722	0.001547	-0.002291
01515	13523967	9.800909	0.346742	0.245551	-0.004746	-0.000471	-0.002202
01516	13524017	9.806563	0.347112	0.255888	-0.005458	-0.000034	-0.001364
01517	13524067	9.805668	0.345428	0.249633	-0.007097	0.002364	0.000835
01518	13524117	9.807667	0.350801	0.262825	-0.006876	0.001235	-0.001641
01519	13524167	9.794783	0.351098	0.265056	-0.006095	0.002895	-0.001726
01520	13524217	9.791042	0.348543	0.259089	-0.003430	0.002523	-0.002250
01521	13524267	9.807897	0.350729	0.263485	-0.002006	0.001068	0.000300
01522	13524317	9.809673	0.344398	0.297483	-0.004692	-0.000181	-0.001784
01523	13524367	9.811785	0.346422	0.258477	-0.003730	0.000837	-0.000627
01524	13524417	9.820573	0.348112	0.259404	-0.003912	0.000612	0.000047
01525	13524467	9.809353	0.341473	0.238573	-0.005193	0.000519	-0.002161
01526	13524517	9.816393	0.341729	0.255313	-0.005502	0.000355	-0.000495
01527	13524567	9.794577	0.350045	0.261387	-0.002305	-0.000390	0.001515
01528	13524617	9.812750	0.347240	0.255705	-0.007064	-0.003260	-0.003653
01529	13524667	9.811757	0.340732	0.275655	-0.001036	-0.001639	-0.003753
01530	13524717	9.795742	0.354971	0.256423	-0.005058	0.002793	0.000961
01531	13524767	9.804363	0.349612	0.259265	-0.004823	0.003242	-0.000481
01532	13524817	9.785579	0.366289	0.260324	-0.001051	0.004106	-0.004555
01533	13524867	9.794857	0.360511	0.234871	-0.003781	0.002616	-0.001415
01534	13524917	9.812572	0.349354	0.280566	-0.004989	0.003498	0.000290
01535	13524967	9.805658	0.354908	0.270484	-0.003584	0.002455	-0.001740
01536	13525017	9.795919	0.338596	0.260172	-0.005268	-0.000125	-0.001872
01537	13525067	9.779449	0.343837	0.256074	-0.003333	0.003854	0.001254
01538	13525117	9.792043	0.347699	0.252568	-0.003377	0.000810	-0.002389
01539	13525167	9.799771	0.350033	0.268570	-0.004754	0.000054	0.001135
01540	13525217	9.800617	0.342869	0.261821	-0.003619	-0.001610	0.000583
01541	13525267	9.809140	0.350595	0.254408	-0.007800	-0.000682	0.001588
01542	13525317	9.812754	0.352493	0.283232	-0.005624	0.004125	-0.003520
01543	13525367	9.798059	0.356827	0.262348	-0.006178	-0.000459	-0.000177
01544	13525417	9.816263	0.325354	0.272118	-0.003266	0.000332	-0.001206
01545	13525467	9.803126	0.351140	0.263847	-0.002629	0.003798	0.001118
01546	13525517	9.815767	0.333699	0.256781	-0.000443	0.001190	-0.001147
01547	13525567	9.810669	0.354006	0.270687	-0.001056	0.001305	-0.001337
01548	13525617	9.809617	0.353638	0.249084	-0.006595	0.002529	-0.001315
01549	13525667	9.801720	0.371181	0.259281	-0.006953	0.002751	-0.001376
01550	13525717	9.806817	0.352857	0.279366	-0.003133	0.001469	-0.000211
01551	13525767	9.819777	0.340355	0.249600	-0.003088	0.004280	0.002117
01552	13525817	9.797459	0.343641	0.271224	-0.004291	0.001507	0.000086
01553	13525867	9.805211	0.340548	0.255320	-0.006372	-0.000894	-0.005308
01554	13525917	9.813200	0.349705	0.253922	-0.003017	0.000953	0.002224
01555	13525967	9.804162	0.340716	0.270929	-0.005826	-0.001980	-0.004706
01556	13526017	9.822106	0.342991	0.253136	-0.003363	0.001529	0.000017
01557	13526067	9.822080	0.357797	0.266564	-0.002170	0.001188	-0.001109
01558	13526117	9.806256	0.346902	0.267126	-0.002468	0.002407	-0.002509
01559	13526167	9.799421	0.346952	0.255944	-0.004134	0.002607	-0.000712
01560	13526217	9.809441	0.341786	0.263032	-0.003059	-0.000984	0.001252
01561	13526267	9.835732	0.334751	0.260962	-0.003518	-0.000900	-0.000574
01562	13526317	9.817128	0.355241	0.264190	-0.008815	0.001374	0.003302
01563	13526367	9.799823	0.347563	0.265549	-0.006387	0.005217	-0.000723
01564	13526417	9.826456	0.322292	0.245223	-0.005276	0.001329	-0.000525
01565	13526467	9.806897	0.349557	0.272132	-0.003564	-0.000718	-0.006852
01566	13526517	9.800310	0.348805	0.261665	-0.002968	0.002142	-0.001389
01567	13526567	9.807279	0.353543	0.280716	-0.003614	-0.000835	-0.000954
01568	13526617	9.798675	0.348912	0.255888	-0.004214	-0.000109	-0.002359
01569	13526667	9.806637	0.359702	0.255602	-0.004067	0.002413	-0.001383
01570	13526717	9.810300	0.353557	0.252914	-0.002600	-0.001299	0.001092
01571	13526767	9.807513	0.332487	0.246734	-0.006749	0.000303	-0.000334
01572	13526817	9.805809	0.353352	0.248116	-0.006090	-0.001463	-0.001273
01573	13526867	9.801034	0.335966	0.247096	-0.003482	0.003466	0.001566
01574	13526917	9.809687	0.348952	0.246066	-0.001311	0.002336	-0.000593
01575	13526967	9.796060	0.344195	0.265089	-0.004036	0.003578	-0.001381
01576	13527017	9.797956	0.366660	0.260146	-0.002407	0.000310	-0.003865
01577	13527067	9.831182	0.334194	0.266989	-0.008570	0.000976	-0.002728
01578	13527117	9.815944	0.346187	0.281232	-0.006025	0.001274	-0.004911
01579	13527167	9.800944	0.343554	0.246590	-0.002319	0.005192	0.000486
01580	13527217	9.806103	0.346867	0.253234	-0.004303	0.001895	0.000151
01581	13527267	9.818081	0.338873	0.257522	-0.005405	0.002229	-0.002406
01582	13527317	9.793699	0.338025	0.274896	-0.000891	0.002376	0.000788
01583	13527367	9.802299	0.352091	0.241323	-0.005973	0.002825	-0.004806
01584	13527417	9.800651	0.335125	0.272754	-0.006256	0.004187	0.000299
01585	13527467	9.805277	0.340050	0.247225	-0.005464	0.002261	0.000701
01586	13527517	9.815352	0.342079	0.268266	-0.002496	0.001410	-0.001591
01587	13527567	9.817138	0.339869	0.253650	-0.006310	0.000799	0.001559
01588	13527617	9.820865	0.349096	0.248771	-0.005823	-0.001109	-0.004028
01589	13527667	9.807049	0.361154	0.264045	-0.004121	0.002287	0.000504
01590	13527717	9.802277	0.364032	0.259419	-0.005012	-0.000118	-0.001172
01591	13527767	9.814720	0.341920	0.257017	-0.005853	0.001420	-0.000263
01592	13527817	9.788227	0.360204	0.266978	-0.006501	0.000566	-0.000972
01593	13527867	9.819460	0.334916	0.274258	-0.003101	0.004202	-0.002148
01594	13527917	9.804732	0.338748	0.260150	-0.004160	0.001182	-0.003508
01595	13527967	9.813974	0.351684	0.240443	-0.002361	0.000056	-0.001015
01596	13528017	9.809199	0.338560	0.269233	-0.004036	-0.000522	-0.000472
01597	13528067	9.828963	0.336944	0.234192	-0.003301	0.002626	0.000024
01598	13528117	9.809811	0.335554	0.253415	0.000183	0.000589	-0.000799
01599	13528167	9.797000	0.354357	0.284289	-0.000843	0.002955	-0.001040
01600	13528217	9.811278	0.370229	0.254585	-0.006158	-0.001471	-0.004186
01601	13528267	9.809529	0.351394	0.268287	-0.001144	0.000013	0.000263
01602	13528317	9.808468	0.349836	0.249471	-0.003728	0.004969	-0.002015
01603	13528367	9.811587	0.348348	0.248265	-0.005791	0.005846	0.001875
01604	13528417	9.825506	0.330035	0.268674	-0.005747	-0.000939	0.000107
01605	13528467	9.812462	0.344766	0.269293	-0.003362	0.002757	0.001787
01606	13528517	9.814108	0.345158	0.271788	-0.003682	0.006255	-0.005531
01607	13528567	9.810405	0.347478	0.249864	-0.002918	0.001630	0.001108
01608	13528617	9.810760	0.360997	0.280043	-0.006140	0.001317	-0.001447
01609	13528667	9.800633	0.344024	0.257346	-0.009929	0.002401	-0.005054
01610	13528717	9.824574	0.333764	0.257725	-0.005900	0.002836	-0.001028
01611	13528767	9.809804	0.354205	0.255672	-0.003572	0.004301	0.000451
01612	13528817	9.809187	0.359985	0.267420	-0.004093	0.003351	-0.001731
01613	13528867	9.801263	0.323024	0.275777	-0.003918	0.001838	-0.000880
01614	13528917	9.793274	0.355295	0.268869	-0.005694	0.001160	-0.001931
01615	13528967	9.801117	0.359435	0.263514	-0.003330	-0.000638	-0.001340
01616	13529017	9.807485	0.348018	0.258353	-0.000834	0.004478	-0.000679
01617	13529067	9.809407	0.356137	0.239527	-0.005233	0.001782	-0.000359
01618	13529117	9.804452	0.346897	0.251329	-0.003276	0.002718	-0.001004
01619	13529167	9.797833	0.356350	0.262379	-0.002769	0.001954	-0.001197
01620	13529217	9.841607	0.339795	0.264461	-0.004333	0.001668	-0.000430
01621	13529267	9.803716	0.362391	0.260684	-0.004645	0.001467	-0.002129
01622	13529317	9.814666	0.346753	0.256014	-0.006510	-0.000378	-0.001941
01623	13529367	9.838468	0.327081	0.258291	-0.007889	-0.000235	-0.002292
01624	13529417	9.813188	0.343846	0.268541	-0.000830	0.000409	0.001065
01625	13529467	9.794182	0.339148	0.270768	-0.008692	0.001008	-0.001188
01626	13529517	9.816121	0.339758	0.264510	-0.002325	0.003090	-0.000905
01627	13529567	9.806838	0.335130	0.272593	-0.003188	0.000080	0.001326
01628	13529617	9.817091	0.336844	0.268129	-0.006702	0.003951	-0.001532
01629	13529667	9.801352	0.348353	0.248458	-0.002071	0.002964	-0.002092
01630	13529717	9.821982	0.335966	0.249304	-0.004069	0.000577	-0.000820
01631	13529767	9.817585	0.337586	0.263399	-0.001034	-0.001241	0.000574
01632	13529817	9.813123	0.337182	0.254105	-0.007656	-0.000325	-0.000432
01633	13529867	9.811890	0.347643	0.253117	-0.006518	-0.000156	-0.003700
01634	13529917	9.809868	0.359300	0.260851	-0.003723	0.003762	-0.002433
01635	13529967	9.797487	0.355371	0.268959	-0.003647	0.000546	0.000276
01636	13530017	9.809852	0.351364	0.280088	-0.002348	-0.002377	-0.001281
01637	13530067	9.811440	0.342283	0.272292	-0.006383	0.000846	-0.002154
01638	13530117	9.802601	0.351598	0.257559	-0.005524	0.004254	-0.000338
01639	13530167	9.807456	0.347802	0.250880	-0.002651	-0.002159	-0.003654
01640	13530217	9.800921	0.347641	0.267773	-0.003067	0.001358	0.000055
01641	13530267	9.817292	0.338738	0.257706	-0.001955	0.003508	-0.001158
01642	13530317	9.807561	0.350140	0.267336	-0.004561	0.002974	-0.002370
01643	13530367	9.807590	0.340865	0.282641	-0.008711	0.001772	-0.001371
01644	13530417	9.802484	0.356427	0.267983	-0.002384	0.000984	-0.000207
01645	13530467	9.823081	0.351357	0.258082	-0.000544	0.001592	0.000685
01646	13530517	9.814198	0.359699	0.253219	-0.002871	-0.001936	-0.001118
01647	13530567	9.821488	0.350115	0.249198	-0.002132	-0.000245	-0.003771
01648	13530617	9.809986	0.344157	0.272063	-0.004791	0.002099	-0.002407
01649	13530667	9.793579	0.359937	0.275442	-0.003045	0.000815	0.000278
01650	13530717	9.799161	0.338984	0.261999	-0.005012	0.000965	-0.002794
01651	13530767	9.800541	0.351510	0.244524	-0.002815	0.001588	0.000314
01652	13530817	9.826703	0.338261	0.276917	-0.004783	-0.002123	0.001802
01653	13530867	9.809891	0.335882	0.265345	-0.007049	0.002968	0.000104
01654	13530917	9.824487	0.342980	0.279436	-0.003656	0.001702	-0.001741
01655	13530967	9.814522	0.345958	0.268128	-0.003021	-0.000390	-0.003002
01656	13531017	9.802785	0.350879	0.268188	-0.003832	-0.001755	0.000806
01657	13531067	9.813751	0.348986	0.270297	-0.004185	-0.000992	-0.001845
01658	13531117	9.831675	0.344639	0.268403	-0.001809	0.003257	0.002655
01659	13531167	9.801329	0.336606	0.263711	-0.004198	0.001396	-0.003788
01660	13531217	9.806093	0.339654	0.256150	-0.004121	-0.002959	-0.002339
01661	13531267	9.810981	0.350168	0.253359	-0.004891	0.000128	-0.001937
01662	13531317	9.807254	0.338385	0.264571	-0.006620	-0.000004	-0.004365
01663	13531367	9.816859	0.350858	0.263915	-0.002325	0.002848	-0.005265
01664	13531417	9.818117	0.343810	0.268109	-0.007367	-0.001530	-0.001587
01665	13531467	9.819353	0.342548	0.262932	-0.003809	0.003176	-0.004262
01666	13531517	9.810026	0.346976	0.260284	-0.004162	0.000234	-0.003348
01667	13531567	9.805645	0.367292	0.273503	-0.002781	0.002360	-0.002088
01668	13531617	9.812566	0.362531	0.281141	-0.004484	0.001720	-0.001321
01669	13531667	9.813757	0.351840	0.262647	-0.002507	-0.000050	0.001232
01670	13531717	9.808267	0.343338	0.282095	-0.003082	0.000481	-0.004089
01671	13531767	9.800144	0.336016	0.262490	-0.005946	0.000469	0.001115
01672	13531817	9.811131	0.338681	0.253084	-0.000592	-0.000020	0.000779
01673	13531867	9.808913	0.353183	0.274398	-0.004370	-0.000417	-0.003350
01674	13531917	9.814198	0.354074	0.265171	-0.001840	0.004929	-0.002942
01675	13531967	9.816437	0.337903	0.281364	-0.005008	-0.000228	-0.002356
01676	13532017	9.798321	0.350127	0.258960	-0.001610	0.000608	-0.001557
01677	13532067	9.814172	0.343413	0.250883	-0.005598	-0.002184	-0.005634
01678	13532117	9.800100	0.340415	0.259652	-0.003142	0.000646	0.000241
01679	13532167	9.805585	0.340723	0.258632	-0.005885	0.001275	-0.001415
01680	13532217	9.813988	0.335208	0.259311	-0.002062	0.000495	-0.004441
01681	13532267	9.815068	0.349272	0.249259	0.000120	0.000537	-0.001785
01682	13532317	9.828135	0.338855	0.274924	-0.004666	0.003292	-0.002372
01683	13532367	9.810211	0.350433	0.262340	-0.005794	-0.002563	0.000329
01684	13532417	9.794778	0.347464	0.260088	-0.002456	0.001105	-0.001325
01685	13532467	9.801985	0.355684	0.272505	-0.002519	0.000040	-0.002518
01686	13532517	9.803727	0.342292	0.248624	-0.004366	0.003652	-0.004289
01687	13532567	9.814166	0.350430	0.277789	-0.004257	0.001659	0.001533
01688	13532617	9.797871	0.346275	0.262911	-0.007527	-0.002470	-0.001654
01689	13532667	9.817412	0.350731	0.251922	-0.005314	0.003476	-0.001534
