PacketCounter	SampleTimeFine	Acc_X	Acc_Y	Acc_Z	Gyr_X	Gyr_Y	Gyr_Z
00001	12148417	9.827142	0.359889	0.252553	-0.003733	0.001882	-0.000443
00002	12148467	9.824719	0.354002	0.233356	-0.005575	0.001525	-0.000277
00003	12148517	9.815851	0.373503	0.240379	-0.004681	0.001508	-0.002878
00004	12148567	9.820500	0.349579	0.268863	-0.003179	0.001573	-0.000956
00005	12148617	9.816370	0.354619	0.232608	-0.004109	-0.001350	-0.000264
00006	12148667	9.772654	0.359619	0.244847	-0.002350	0.000551	-0.001474
00007	12148717	9.787126	0.329817	0.236639	-0.002485	-0.000228	-0.002218
00008	12148767	9.774440	0.342447	0.221389	-0.003816	0.000232	-0.003818
00009	12148817	9.779474	0.342460	0.255401	-0.003183	0.001698	-0.001817
00010	12148867	9.803322	0.346335	0.240928	-0.004637	0.001026	-0.002621
00011	12148917	9.836122	0.344913	0.255802	-0.004413	0.000524	0.002403
00012	12148967	9.828412	0.351526	0.256121	-0.005510	0.001498	0.000229
00013	12149017	9.835002	0.358717	0.254806	-0.003672	0.000243	0.001953
00014	12149067	9.841816	0.360606	0.266758	-0.006604	-0.000329	-0.001858
00015	12149117	9.829764	0.346278	0.240846	-0.006576	0.004131	0.001436
00016	12149167	9.821353	0.346160	0.253463	-0.004499	0.000668	-0.003010
00017	12149217	9.793522	0.347647	0.245558	-0.005670	0.002988	0.003643
00018	12149267	9.800157	0.355792	0.234622	-0.004970	0.000441	-0.001597
00019	12149317	9.792754	0.360852	0.227041	-0.005832	0.000359	-0.002621
00020	12149367	9.793825	0.360985	0.246500	-0.001934	0.001659	-0.000541
00021	12149417	9.801992	0.360759	0.235524	-0.006679	0.006218	-0.001658
00022	12149467	9.817229	0.342518	0.234921	-0.003017	0.003605	-0.001270
00023	12149517	9.797263	0.364897	0.260399	-0.001799	0.004596	-0.000910
00024	12149567	9.817098	0.364338	0.250879	-0.003822	0.000522	-0.002662
00025	12149617	9.811774	0.357800	0.238473	-0.002515	0.000972	0.000292
00026	12149667	9.831933	0.363709	0.240247	-0.003222	0.001922	-0.002045
00027	12149717	9.818879	0.362914	0.234804	-0.004505	0.001099	0.001415
00028	12149767	9.794288	0.358365	0.254076	-0.004074	-0.000712	-0.004812
00029	12149817	9.811853	0.363396	0.215197	-0.004075	0.001419	-0.002205
00030	12149867	9.781588	0.374327	0.233730	-0.005732	0.004634	-0.000163
00031	12149917	9.778900	0.354483	0.247042	-0.004704	0.003132	-0.003185
00032	12149967	9.801964	0.345435	0.231744	-0.004719	-0.001352	-0.000620
00033	12150017	9.809216	0.358285	0.266098	-0.005502	0.002351	-0.001079
00034	12150067	9.825696	0.345254	0.246071	-0.003877	0.000541	0.001599
00035	12150117	9.815321	0.370370	0.255939	-0.001540	0.002386	-0.001055
00036	12150167	9.820664	0.364657	0.250113	-0.004248	0.000653	-0.003266
00037	12150217	9.817253	0.372699	0.247771	-0.002863	0.000620	-0.001349
00038	12150267	9.806532	0.364230	0.264842	-0.007588	0.000406	-0.001403
00039	12150317	9.816660	0.343793	0.245805	-0.001341	-0.001460	-0.004155
00040	12150367	9.821660	0.333048	0.269201	-0.005982	-0.003216	-0.002902
00041	12150417	9.793702	0.344496	0.260072	-0.005551	-0.001721	-0.002537
00042	12150467	9.779728	0.346761	0.242502	-0.005502	0.000921	-0.005119
00043	12150517	9.788961	0.356146	0.233098	-0.004418	0.001464	-0.000061
00044	12150567	9.794077	0.362622	0.240440	-0.008496	-0.000551	-0.004447
00045	12150617	9.791512	0.358695	0.240059	-0.004563	0.003044	-0.001076
00046	12150667	9.816016	0.353107	0.255265	-0.004932	0.002423	-0.000725
00047	12150717	9.817042	0.370062	0.248511	-0.002735	0.001656	-0.002047
00048	12150767	9.830217	0.362338	0.250830	-0.004415	0.001272	0.000417
00049	12150817	9.822975	0.358206	0.236091	-0.004240	0.003888	0.000271
00050	12150867	9.820283	0.370604	0.260926	-0.002863	0.000654	-0.000710
00051	12150917	9.811639	0.368008	0.240135	-0.009058	-0.000817	-0.003137
00052	12150967	9.795445	0.361565	0.252232	-0.005233	0.003099	0.001874
00053	12151017	9.795354	0.356922	0.238323	-0.005680	0.003698	-0.001163
00054	12151067	9.786718	0.362735	0.236366	-0.005870	-0.000403	-0.001184
00055	12151117	9.801014	0.362033	0.236827	-0.002433	0.000105	-0.003470
00056	12151167	9.810235	0.361425	0.248008	-0.001116	-0.000995	-0.000593
00057	12151217	9.830754	0.338639	0.250686	-0.003649	0.004317	-0.000624
00058	12151267	9.818329	0.368873	0.234624	-0.001476	0.002290	-0.001760
00059	12151317	9.831199	0.340506	0.252538	-0.002223	0.001764	-0.000931
00060	12151367	9.825327	0.371455	0.252050	-0.003704	0.001222	0.002276
00061	12151417	9.806976	0.358920	0.242133	-0.001232	0.003778	-0.001112
00062	12151467	9.794724	0.369982	0.236850	-0.005551	-0.000399	-0.001891
00063	12151517	9.806584	0.348989	0.248104	-0.003962	0.002251	0.000779
00064	12151567	9.797652	0.350518	0.225333	-0.004169	0.001336	-0.003298
00065	12151617	9.808125	0.358569	0.248389	-0.003796	0.001861	-0.001375
00066	12151667	9.802043	0.355357	0.238209	-0.003041	-0.000032	-0.003118
00067	12151717	9.812527	0.339871	0.230053	-0.006625	0.001398	0.000362
00068	12151767	9.809743	0.360337	0.253743	-0.003374	-0.000261	0.000539
00069	12151817	9.808819	0.359052	0.250506	-0.003142	0.002290	-0.003072
00070	12151867	9.823256	0.359373	0.265681	-0.006511	-0.000052	0.001285
00071	12151917	9.824772	0.365576	0.237401	-0.004551	-0.000604	0.000346
00072	12151967	9.826742	0.375953	0.245348	-0.003943	0.001303	-0.003458
00073	12152017	9.826053	0.357220	0.241041	0.000230	0.001001	0.000247
00074	12152067	9.809597	0.357407	0.243637	-0.002473	-0.002471	0.000652
00075	12152117	9.798648	0.362332	0.271840	-0.004110	-0.000273	-0.000645
00076	12152167	9.788917	0.351150	0.251574	-0.004376	0.003114	-0.001135
00077	12152217	9.799541	0.358946	0.250798	-0.003530	0.003473	-0.002775
00078	12152267	9.826015	0.353430	0.255177	-0.005896	0.001698	-0.000020
00079	12152317	9.802568	0.375781	0.266301	-0.006022	0.001663	-0.000310
00080	12152367	9.828485	0.348088	0.251369	-0.006633	0.003521	-0.001068
00081	12152417	9.812255	0.367160	0.257354	-0.005750	-0.001008	0.001281
00082	12152467	9.803119	0.363722	0.239410	-0.004385	-0.001365	0.004348
00083	12152517	9.811183	0.360453	0.250929	-0.003183	0.000872	-0.000677
00084	12152567	9.802136	0.350594	0.232242	-0.002518	0.001046	0.001120
00085	12152617	9.813755	0.361473	0.255820	-0.003375	-0.004059	0.003883
00086	12152667	9.806611	0.344472	0.253704	-0.006687	0.006361	-0.001790
00087	12152717	9.816116	0.336449	0.233893	-0.004143	0.001200	-0.006342
00088	12152767	9.808838	0.346881	0.234664	-0.005355	0.001706	0.001004
00089	12152817	9.794787	0.363776	0.238531	-0.004477	0.001205	-0.000956
00090	12152867	9.789417	0.366293	0.254765	-0.006551	-0.002255	-0.001895
00091	12152917	9.800256	0.351479	0.225882	-0.001749	0.001804	-0.001441
00092	12152967	9.796945	0.361098	0.242653	0.000974	0.001688	-0.000904
00093	12153017	9.824395	0.356068	0.241751	-0.009310	0.000950	-0.004378
00094	12153067	9.829437	0.350837	0.244645	-0.005948	0.002079	-0.003195
00095	12153117	9.812630	0.363376	0.242505	-0.002907	-0.000890	0.001267
00096	12153167	9.822049	0.347524	0.253709	-0.002059	0.000304	-0.003435
00097	12153217	9.799717	0.359473	0.258855	-0.004916	-0.000355	-0.001121
00098	12153267	9.796825	0.360359	0.262767	-0.005641	0.001507	-0.002137
00099	12153317	9.807538	0.364219	0.254759	-0.000852	0.000589	-0.003342
00100	12153367	9.786083	0.386716	0.251770	-0.006092	0.000594	-0.002430
00101	12153417	9.789334	0.370861	0.259716	-0.006281	0.003265	-0.005328
00102	12153467	9.821790	0.346911	0.258708	-0.006214	-0.001732	-0.001002
00103	12153517	9.839713	0.352668	0.237144	-0.006104	0.002180	0.001613
00104	12153567	9.812159	0.362335	0.243649	-0.004549	-0.000998	-0.004686
00105	12153617	9.798675	0.369467	0.253632	-0.003931	0.002249	0.000042
00106	12153667	9.807738	0.372337	0.246619	-0.004512	0.001138	-0.002591
00107	12153717	9.820354	0.356923	0.238135	-0.003301	-0.000517	0.000408
00108	12153767	9.795592	0.348060	0.255901	-0.003480	0.005128	-0.001995
00109	12153817	9.802582	0.352526	0.234163	-0.004555	0.000592	-0.000738
00110	12153867	9.807864	0.365006	0.240350	-0.004249	0.001115	0.000324
00111	12153917	9.814440	0.371509	0.239885	-0.005664	-0.000486	0.002079
00112	12153967	9.798761	0.360603	0.256051	-0.004300	0.003083	0.002547
00113	12154017	9.825299	0.356103	0.249355	-0.003245	-0.001357	-0.000016
00114	12154067	9.802782	0.368991	0.244207	-0.004461	-0.001481	-0.001869
00115	12154117	9.812284	0.358076	0.232704	-0.005463	0.002123	-0.000561
00116	12154167	9.803336	0.342121	0.248841	-0.005072	0.002839	-0.001489
00117	12154217	9.811016	0.362907	0.234428	-0.003856	0.001632	-0.003266
00118	12154267	9.804721	0.350177	0.238038	-0.001923	0.000019	-0.003598
00119	12154317	9.790349	0.350692	0.251239	-0.000256	0.001150	-0.001576
00120	12154367	9.803471	0.333093	0.244232	-0.000871	-0.000434	0.001492
00121	12154417	9.824162	0.350287	0.252729	-0.005724	-0.000554	0.003299
00122	12154467	9.814806	0.336400	0.253547	-0.007667	0.001057	0.001422
00123	12154517	9.816720	0.365320	0.232384	-0.004737	0.000102	-0.002019
00124	12154567	9.819731	0.349132	0.240168	-0.004552	0.003561	-0.001844
00125	12154617	9.801908	0.362475	0.245990	-0.003631	0.004033	0.000498
00126	12154667	9.815282	0.356444	0.251859	-0.007411	0.000761	-0.001463
00127	12154717	9.809175	0.364064	0.261481	-0.002576	0.000627	-0.001351
00128	12154767	9.817708	0.350938	0.255491	-0.003854	0.001767	-0.000063
00129	12154817	9.804029	0.346710	0.242608	-0.005537	0.001314	-0.000892
00130	12154867	9.800380	0.348733	0.250807	-0.005811	0.002693	-0.003443
00131	12154917	9.791458	0.360068	0.246257	-0.006565	0.002457	-0.002644
00132	12154967	9.790781	0.366896	0.263754	-0.009051	0.000091	-0.002746
00133	12155017	9.805165	0.348800	0.246524	-0.004470	0.004046	-0.000622
00134	12155067	9.809750	0.350212	0.234815	-0.003631	0.000674	-0.000706
00135	12155117	9.820294	0.336719	0.250398	-0.004569	-0.001288	-0.003887
00136	12155167	9.821447	0.361918	0.244917	-0.000563	0.002755	-0.002050
00137	12155217	9.823201	0.372729	0.247729	-0.000566	0.000921	-0.000393
00138	12155267	9.814701	0.365447	0.250469	-0.003333	0.002521	0.000360
00139	12155317	9.807343	0.345172	0.248918	-0.006925	-0.003354	0.001459
00140	12155367	9.796987	0.373348	0.248566	-0.007220	0.000059	0.000453
00141	12155417	9.809462	0.357170	0.228710	-0.005555	0.003094	0.000019
00142	12155467	9.809278	0.365876	0.239361	-0.002749	-0.001960	-0.000881
00143	12155517	9.800367	0.351352	0.247329	-0.005686	-0.000364	-0.001921
00144	12155567	9.819940	0.361486	0.258061	-0.005138	0.000639	-0.001858
00145	12155617	9.813586	0.345006	0.240365	-0.003530	0.000314	-0.002792
00146	12155667	9.824116	0.360472	0.239527	-0.006843	-0.000899	0.000510
00147	12155717	9.792912	0.363729	0.235130	-0.002914	0.000396	0.000635
00148	12155767	9.803721	0.365738	0.253318	-0.006204	0.000239	0.000007
00149	12155817	9.827794	0.348018	0.246673	-0.004290	-0.002155	-0.004245
00150	12155867	9.809771	0.353128	0.263863	-0.001977	0.000896	-0.001315
00151	12155917	9.819506	0.343683	0.249170	-0.001491	-0.000193	0.000564
00152	12155967	9.807940	0.346513	0.225802	-0.001841	0.001834	-0.000030
00153	12156017	9.802811	0.356952	0.225323	-0.002898	0.001617	-0.003041
00154	12156067	9.794237	0.357329	0.225838	-0.005371	0.001125	-0.001403
00155	12156117	9.817119	0.343965	0.248915	-0.006777	-0.000128	-0.001662
00156	12156167	9.810218	0.344575	0.245890	-0.006949	-0.000547	0.000417
00157	12156217	9.827053	0.354468	0.238920	-0.005241	0.004091	-0.002386
00158	12156267	9.829218	0.352282	0.239037	-0.001296	-0.000320	0.000820
00159	12156317	9.822584	0.332904	0.273598	-0.005295	-0.000224	0.000221
00160	12156367	9.824542	0.360103	0.248702	-0.003134	0.000668	-0.006925
00161	12156417	9.801895	0.360831	0.249661	-0.005312	-0.002845	-0.000141
00162	12156467	9.817019	0.354456	0.244904	-0.000939	0.000365	-0.001843
00163	12156517	9.799049	0.357406	0.217184	-0.004174	0.000298	-0.005193
00164	12156567	9.801347	0.350431	0.244254	-0.003645	0.000956	-0.001374
00165	12156617	9.813631	0.354007	0.252360	-0.004385	0.000568	0.002050
00166	12156667	9.799026	0.364149	0.245725	-0.010104	0.001268	0.001080
00167	12156717	9.802831	0.349834	0.237737	-0.004866	0.000458	0.000387
00168	12156767	9.806154	0.352307	0.234911	-0.003029	0.003009	-0.000726
00169	12156817	9.817663	0.352380	0.259757	-0.003445	0.000639	-0.002757
00170	12156867	9.806896	0.368787	0.234686	-0.007674	0.002047	-0.003702
00171	12156917	9.803982	0.357349	0.228689	-0.007402	0.000472	-0.001659
00172	12156967	9.816229	0.341728	0.243074	-0.000548	0.003078	-0.003458
00173	12157017	9.819390	0.351922	0.251879	-0.006697	0.003848	0.000665
00174	12157067	9.811254	0.354413	0.252906	-0.006151	0.002663	0.001487
00175	12157117	9.791274	0.356723	0.243117	-0.007165	0.000157	0.000100
00176	12157167	9.801560	0.356510	0.236544	-0.005760	0.000312	0.000227
00177	12157217	9.797346	0.380350	0.253138	-0.007765	0.001052	0.000012
00178	12157267	9.802307	0.366568	0.250226	-0.001719	0.000899	-0.002411
00179	12157317	9.811441	0.383726	0.238938	0.000401	0.000247	-0.006041
00180	12157367	9.811763	0.360750	0.233687	-0.006249	0.002628	-0.001843
00181	12157417	9.810453	0.367227	0.240867	-0.003768	0.001024	-0.000578
00182	12157467	9.822279	0.350495	0.248749	-0.004504	0.002746	-0.004540
00183	12157517	9.818374	0.362329	0.239824	-0.005058	0.001226	-0.000727
00184	12157567	9.814410	0.357863	0.236507	-0.005050	0.001062	-0.000220
00185	12157617	9.793624	0.356492	0.248631	-0.006363	0.001140	-0.001692
00186	12157667	9.802951	0.374932	0.243985	-0.004857	0.000099	-0.000286
00187	12157717	9.803112	0.358552	0.250561	-0.004262	0.003026	0.004214
00188	12157767	9.813617	0.362609	0.239144	-0.003163	0.000804	-0.002920
00189	12157817	9.794853	0.369425	0.255567	-0.004680	0.000425	-0.001667
00190	12157867	9.808263	0.354736	0.235106	-0.003271	0.000451	-0.001638
00191	12157917	9.821943	0.352125	0.261372	-0.003219	-0.001390	-0.002192
00192	12157967	9.810520	0.368337	0.266432	-0.004832	-0.000970	-0.002731
00193	12158017	9.813387	0.344309	0.236082	-0.002875	0.000975	-0.001221
00194	12158067	9.807071	0.359497	0.264366	-0.003738	0.000892	-0.001729
00195	12158117	9.810699	0.353719	0.228017	-0.008244	0.003944	-0.002567
00196	12158167	9.803295	0.346714	0.245022	-0.007088	0.003835	-0.001545
00197	12158217	9.798988	0.350695	0.240944	-0.004680	0.002589	0.000396
00198	12158267	9.807536	0.338867	0.230471	-0.000849	-0.002478	-0.000733
00199	12158317	9.803622	0.355405	0.252919	-0.004322	0.002203	-0.003644
00200	12158367	9.821582	0.342012	0.263125	-0.004883	0.001173	0.003432
00201	12158417	9.808547	0.361913	0.251428	-0.003058	0.002306	0.004331
00202	12158467	9.835323	0.337067	0.246195	-0.004146	-0.000177	-0.000361
00203	12158517	9.801631	0.361957	0.252909	-0.006696	0.002714	-0.000370
00204	12158567	9.810991	0.354870	0.255026	-0.005388	0.001870	0.000717
00205	12158617	9.825482	0.352630	0.227122	-0.006481	0.000817	0.001000
00206	12158667	9.803006	0.363354	0.259438	-0.006653	0.004166	-0.003210
00207	12158717	9.814027	0.363075	0.248335	-0.004444	0.003439	0.001106
00208	12158767	9.792507	0.366585	0.255324	-0.001250	0.002362	-0.000224
00209	12158817	9.812291	0.354283	0.239934	-0.003685	0.002181	-0.003582
00210	12158867	9.800634	0.351475	0.243461	-0.003545	-0.000464	-0.004974
00211	12158917	9.799682	0.350400	0.244523	-0.003186	0.001945	0.000647
00212	12158967	9.816530	0.360050	0.233853	-0.004446	-0.000858	0.000022
00213	12159017	9.804639	0.352583	0.248344	-0.004917	0.002939	-0.001105
00214	12159067	9.824584	0.356074	0.250626	-0.003785	0.001445	-0.001535
00215	12159117	9.808242	0.349524	0.249232	-0.004806	0.000521	-0.000867
00216	12159167	9.797284	0.367583	0.252676	-0.006749	0.001460	0.000620
00217	12159217	9.801817	0.354862	0.236341	-0.005728	0.002246	-0.000788
00218	12159267	9.805613	0.348908	0.251576	-0.005867	0.007464	-0.006335
00219	12159317	9.809591	0.354224	0.252363	-0.002337	0.000443	0.001275
00220	12159367	9.788908	0.354078	0.246569	-0.003649	0.004381	-0.002190
00221	12159417	9.829881	0.333395	0.247201	-0.003916	-0.001332	0.000948
00222	12159467	9.807384	0.339046	0.254054	-0.002836	-0.000314	-0.001805
00223	12159517	9.808062	0.367315	0.241143	-0.001594	0.002633	-0.005764
00224	12159567	9.809854	0.353116	0.250201	-0.002915	0.002264	-0.002749
00225	12159617	9.814898	0.356426	0.236031	-0.004280	0.002176	-0.000571
00226	12159667	9.808221	0.347795	0.256431	-0.004578	-0.000964	-0.003213
00227	12159717	9.823665	0.334231	0.249694	-0.004013	0.001702	0.000036
00228	12159767	9.804602	0.355389	0.248093	-0.005814	0.002088	0.000048
00229	12159817	9.807116	0.338242	0.261313	-0.003401	0.004379	-0.003923
00230	12159867	9.815999	0.338986	0.247263	-0.004635	-0.000067	-0.000962
00231	12159917	9.806942	0.339774	0.247867	-0.006632	0.002735	0.000797
00232	12159967	9.809333	0.343315	0.238691	-0.006197	0.000867	-0.001553
00233	12160017	9.795293	0.361590	0.277387	-0.002131	0.001646	-0.004668
00234	12160067	9.820663	0.353480	0.234620	-0.003539	0.002949	-0.000014
00235	12160117	9.809783	0.355137	0.257466	-0.007610	0.003164	-0.002246
00236	12160167	9.808587	0.363161	0.242892	-0.006954	0.003792	-0.001409
00237	12160217	9.803258	0.366547	0.250507	-0.002325	0.001869	-0.001685
00238	12160267	9.810369	0.365570	0.258106	-0.004949	0.000756	-0.002678
00239	12160317	9.805103	0.357688	0.238677	-0.003061	-0.001042	0.000542
00240	12160367	9.816880	0.362953	0.249947	-0.007269	0.001232	-0.003408
00241	12160417	9.801846	0.357404	0.227213	-0.002674	0.000702	-0.001822
00242	12160467	9.807842	0.356860	0.259249	-0.001901	-0.001020	0.003233
00243	12160517	9.805120	0.375725	0.237952	-0.004223	-0.001678	0.001053
00244	12160567	9.822654	0.356577	0.252835	-0.006625	0.002177	-0.003694
00245	12160617	9.802749	0.354239	0.240873	-0.006616	-0.001011	-0.000953
00246	12160667	9.801133	0.356869	0.228487	-0.003546	0.003206	-0.000520
00247	12160717	9.811544	0.356086	0.241081	-0.004311	-0.001033	-0.000802
00248	12160767	9.808068	0.375346	0.224516	-0.004637	0.000017	-0.003421
00249	12160817	9.808801	0.339263	0.256701	-0.003009	0.001244	-0.002267
00250	12160867	9.791665	0.371122	0.228756	-0.003127	0.001381	0.002321
00251	12160917	9.785159	0.370406	0.241463	-0.001980	0.001332	0.001449
00252	12160967	9.811350	0.365335	0.253571	-0.007515	0.001232	0.000405
00253	12161017	9.806383	0.343696	0.252893	-0.002951	0.002771	0.001525
00254	12161067	9.809519	0.342923	0.248833	-0.007091	0.003047	-0.001734
00255	12161117	9.808042	0.359189	0.261753	-0.001365	0.002250	0.002350
00256	12161167	9.803314	0.366889	0.239492	-0.003768	0.003301	-0.000234
00257	12161217	9.790882	0.363915	0.253941	-0.006547	0.003189	0.000706
00258	12161267	9.806867	0.351147	0.237169	-0.002889	0.004606	-0.001418
00259	12161317	9.822771	0.348454	0.249478	-0.007668	0.003069	0.000095
00260	12161367	9.803819	0.361952	0.245920	-0.003632	0.000356	-0.004928
00261	12161417	9.804746	0.364071	0.245010	-0.003412	0.001682	-0.003734
00262	12161467	9.810004	0.357254	0.256215	-0.005339	0.002237	-0.000750
00263	12161517	9.829346	0.344053	0.237103	-0.002833	0.000601	-0.001182
00264	12161567	9.811733	0.362166	0.235006	-0.002740	-0.000530	-0.003013
00265	12161617	9.802641	0.343627	0.242116	-0.006292	0.000799	-0.001425
00266	12161667	9.813663	0.354641	0.247363	-0.006318	0.003736	-0.001796
00267	12161717	9.805102	0.345310	0.225563	0.000757	0.001569	-0.000449
00268	12161767	9.819243	0.349033	0.242275	-0.001863	0.001394	-0.000631
00269	12161817	9.797939	0.356858	0.243308	-0.004355	0.000253	-0.002394
00270	12161867	9.819080	0.344941	0.277287	-0.004448	0.004448	-0.000931
00271	12161917	9.826994	0.335643	0.248395	-0.003400	0.000299	-0.002141
00272	12161967	9.805292	0.359959	0.242834	-0.003628	0.000788	0.001677
00273	12162017	9.830691	0.344782	0.247224	0.001472	0.001491	0.003006
00274	12162067	9.822415	0.342501	0.243368	-0.003508	-0.001580	-0.003883
00275	12162117	9.808231	0.353742	0.241794	-0.002261	-0.000361	-0.003880
00276	12162167	9.790361	0.368229	0.252614	-0.003815	-0.000673	-0.000669
00277	12162217	9.806652	0.353651	0.228227	-0.000994	0.000080	-0.003140
00278	12162267	9.808657	0.371301	0.253052	-0.005724	0.001133	-0.001518
00279	12162317	9.811509	0.355015	0.247571	-0.003703	-0.000959	0.000866
00280	12162367	9.794075	0.349676	0.227986	-0.005094	0.001568	-0.000752
00281	12162417	9.817890	0.359395	0.247772	0.000005	0.002110	-0.000125
00282	12162467	9.802855	0.365766	0.240017	-0.005726	0.003229	-0.002442
00283	12162517	9.794462	0.370586	0.239227	-0.000575	0.000130	0.000031
00284	12162567	9.798869	0.366138	0.228390	-0.003543	-0.001349	-0.002503
00285	12162617	9.804002	0.363283	0.252462	-0.004365	0.003604	-0.004108
00286	12162667	9.824966	0.345265	0.248944	-0.004483	0.002183	-0.003058
00287	12162717	9.819980	0.363285	0.247990	-0.004931	0.001108	-0.003514
00288	12162767	9.804251	0.363699	0.250263	-0.002480	0.002804	-0.001713
00289	12162817	9.814414	0.356382	0.237976	-0.003743	0.001234	-0.000374
00290	12162867	9.792670	0.376872	0.247341	-0.003831	-0.000025	-0.000567
00291	12162917	9.811551	0.355147	0.240790	-0.003333	-0.001858	-0.001900
00292	12162967	9.801462	0.372041	0.259367	-0.006380	0.001703	-0.001705
00293	12163017	9.787714	0.354899	0.244076	-0.000758	-0.000269	-0.002981
00294	12163067	9.814195	0.337516	0.272486	-0.004840	0.000671	0.001130
00295	12163117	9.813807	0.341239	0.251144	-0.002131	0.001747	-0.001340
00296	12163167	9.808248	0.352612	0.241493	-0.005039	-0.003106	0.003357
00297	12163217	9.820090	0.343318	0.232333	-0.007033	0.006143	-0.002135
00298	12163267	9.806683	0.362478	0.242482	-0.008313	-0.000047	-0.003026
00299	12163317	9.807152	0.344429	0.243002	-0.001835	0.001293	-0.003871
00300	12163367	9.836410	0.348101	0.240505	-0.004972	0.000633	-0.001498
00301	12163417	9.822973	0.360389	0.232603	-0.002847	-0.001077	-0.001480
00302	12163467	9.819860	0.357436	0.240334	-0.006939	0.001077	-0.001839
00303	12163517	9.804290	0.370063	0.229892	-0.005782	0.001366	0.002646
00304	12163567	9.811183	0.341322	0.251631	-0.004114	0.000411	-0.005213
00305	12163617	9.806969	0.358922	0.241533	-0.005256	-0.002509	-0.001542
00306	12163667	9.802971	0.354300	0.244958	-0.006027	0.000513	-0.002550
00307	12163717	9.797456	0.361942	0.235201	-0.008849	0.002818	-0.003490
00308	12163767	9.812128	0.357138	0.259996	-0.003136	-0.000588	0.001091
00309	12163817	9.814631	0.359305	0.235755	-0.003511	0.001009	-0.000730
00310	12163867	9.809370	0.345840	0.227670	-0.001362	-0.000437	-0.000935
00311	12163917	9.805041	0.364122	0.236128	-0.003514	0.004268	-0.001862
00312	12163967	9.821513	0.347219	0.225482	-0.004360	0.001479	-0.000883
00313	12164017	9.800756	0.357977	0.247374	-0.002263	-0.000130	-0.001407
00314	12164067	9.809330	0.340171	0.245923	-0.006668	0.000336	-0.004473
00315	12164117	9.801131	0.364033	0.251877	-0.007003	0.000437	0.001204
00316	12164167	9.802523	0.354650	0.238496	-0.003254	0.001853	-0.001522
00317	12164217	9.815227	0.359996	0.254014	-0.003190	0.000755	-0.002329
00318	12164267	9.808355	0.366324	0.234156	-0.001567	0.001339	0.000039
00319	12164317	9.792336	0.369403	0.238070	-0.004370	0.001899	-0.000522
00320	12164367	9.810759	0.358628	0.246212	-0.004297	0.002644	-0.001649
00321	12164417	9.828160	0.359055	0.243456	-0.006734	0.002991	0.000763
00322	12164467	9.834383	0.343912	0.269531	-0.000884	0.000600	-0.003333
00323	12164517	9.803414	0.373479	0.249302	-0.004495	0.002604	-0.002924
00324	12164567	9.814764	0.341446	0.250417	-0.002643	0.001001	0.000585
00325	12164617	9.818071	0.365576	0.243882	-0.002407	0.000583	0.001543
00326	12164667	9.795227	0.363124	0.246195	-0.005341	-0.000763	-0.001340
00327	12164717	9.818875	0.338343	0.245885	-0.001118	0.001016	-0.002753
00328	12164767	9.810930	0.343102	0.250936	-0.003638	0.000983	-0.000470
00329	12164817	9.795464	0.360536	0.251103	-0.002847	-0.003950	-0.001266
00330	12164867	9.816205	0.375815	0.255892	-0.008416	-0.000687	-0.000278
00331	12164917	9.798886	0.358493	0.241748	-0.004854	0.004286	0.001345
00332	12164967	9.803346	0.360615	0.249052	-0.005610	0.001587	-0.001901
00333	12165017	9.814471	0.373230	0.231792	-0.003758	0.003551	-0.003438
00334	12165067	9.814731	0.352924	0.232251	-0.006646	0.001986	-0.001486
00335	12165117	9.794431	0.367202	0.251404	-0.003918	-0.001520	-0.003274
00336	12165167	9.793514	0.385003	0.248145	-0.006793	0.000368	-0.003827
00337	12165217	9.819813	0.355004	0.254003	-0.000292	0.001524	0.000803
00338	12165267	9.802779	0.359755	0.263676	-0.004056	0.000967	-0.001658
00339	12165317	9.790882	0.362521	0.257296	-0.005200	0.001656	-0.002959
00340	12165367	9.800000	0.345977	0.241318	-0.004308	-0.000425	-0.002492
00341	12165417	9.813688	0.352970	0.246325	-0.003278	-0.001407	-0.001543
00342	12165467	9.814482	0.350194	0.239916	-0.004594	0.003029	-0.000042
00343	12165517	9.811581	0.369896	0.244280	-0.005535	0.002102	-0.004115
00344	12165567	9.797745	0.356116	0.239376	-0.003265	-0.002790	0.000759
00345	12165617	9.841802	0.346090	0.258785	-0.007194	0.002942	-0.003725
00346	12165667	9.808300	0.371481	0.234196	-0.002158	0.002012	0.001226
00347	12165717	9.810572	0.362527	0.230684	-0.003102	-0.001249	-0.004233
00348	12165767	9.806894	0.359016	0.254299	-0.006387	0.000565	-0.005112
00349	12165817	9.804221	0.378967	0.261238	-0.004525	0.000704	-0.001172
00350	12165867	9.788155	0.363741	0.233756	-0.003362	0.000370	-0.000117
00351	12165917	9.804405	0.346739	0.258410	-0.003067	0.002182	0.000432
00352	12165967	9.801776	0.356152	0.240459	-0.004432	0.001872	0.000338
00353	12166017	9.811493	0.359774	0.240624	-0.006376	0.004001	0.002631
00354	12166067	9.799791	0.374696	0.254548	-0.003920	-0.000028	0.000967
00355	12166117	9.804804	0.341303	0.243881	-0.003491	0.005397	-0.002693
00356	12166167	9.815764	0.355016	0.253557	-0.004327	0.002611	-0.000428
00357	12166217	9.816757	0.355986	0.244947	-0.004383	0.000923	-0.005373
00358	12166267	9.799916	0.358518	0.228954	-0.005125	0.002369	-0.002700
00359	12166317	9.807909	0.358587	0.245144	-0.005818	0.000996	-0.003123
00360	12166367	9.807907	0.342158	0.239403	-0.005036	-0.000473	-0.002368
00361	12166417	9.808054	0.345599	0.248522	-0.002029	0.000224	-0.005129
00362	12166467	9.800126	0.371972	0.243984	-0.002050	-0.000571	0.001123
00363	12166517	9.805822	0.348373	0.257502	-0.006139	0.003389	-0.000196
00364	12166567	9.801660	0.365932	0.239423	-0.004933	-0.000559	0.000773
00365	12166617	9.829992	0.370223	0.231816	-0.005761	0.001454	-0.001106
00366	12166667	9.807637	0.345712	0.238567	-0.003973	0.003222	-0.005426
00367	12166717	9.814652	0.373948	0.240819	-0.006057	0.001544	-0.001357
00368	12166767	9.821386	0.349091	0.241769	-0.003032	0.000956	-0.001081
00369	12166817	9.793626	0.340234	0.243349	-0.003254	0.000819	-0.001659
00370	12166867	9.805935	0.353754	0.266354	-0.004403	0.002965	-0.002282
00371	12166917	9.805453	0.353840	0.228559	-0.002512	-0.001327	-0.001220
00372	12166967	9.803184	0.363497	0.229317	-0.005523	-0.001186	-0.001053
00373	12167017	9.807244	0.353546	0.248244	-0.005119	0.000402	0.000171
00374	12167067	9.799691	0.353724	0.236485	-0.005446	0.006390	-0.005531
00375	12167117	9.823581	0.349762	0.231970	-0.002697	0.002541	-0.000820
00376	12167167	9.815283	0.356312	0.251640	-0.003625	0.001454	-0.003193
00377	12167217	9.800261	0.363048	0.240654	-0.001766	0.000495	-0.000668
00378	12167267	9.808941	0.354625	0.241033	0.001339	-0.000706	-0.000175
00379	12167317	9.810765	0.356751	0.249707	-0.001414	-0.000732	-0.003180
00380	12167367	9.801171	0.358098	0.257664	-0.003415	0.000851	-0.001749
00381	12167417	9.815947	0.345947	0.241784	-0.007402	0.001588	-0.000584
00382	12167467	9.807930	0.359950	0.238333	-0.008269	0.002600	-0.003912
00383	12167517	9.814430	0.358156	0.232441	-0.005414	0.001426	-0.001520
00384	12167567	9.821842	0.328783	0.248274	-0.002114	0.003524	-0.000074
00385	12167617	9.826302	0.335385	0.244589	-0.003734	0.000714	-0.002652
00386	12167667	9.804893	0.357296	0.235346	-0.003125	0.000856	-0.000764
00387	12167717	9.795918	0.379327	0.256782	-0.003631	0.001886	0.000497
00388	12167767	9.827871	0.358510	0.252738	-0.004537	0.000086	-0.001052
00389	12167817	9.812451	0.352983	0.254223	-0.007049	-0.001272	0.001960
00390	12167867	9.814300	0.364908	0.239332	-0.004832	-0.001690	0.000061
00391	12167917	9.801890	0.366280	0.240080	-0.004174	-0.002749	-0.003883
00392	12167967	9.793757	0.350968	0.238786	-0.006399	0.000283	-0.001427
00393	12168017	9.797810	0.352547	0.273069	-0.001170	0.002120	0.000333
00394	12168067	9.803929	0.345319	0.261778	-0.002334	0.002124	-0.002839
00395	12168117	9.814884	0.349300	0.252259	-0.006104	-0.001875	0.000544
00396	12168167	9.832027	0.349111	0.254618	-0.001010	0.000370	-0.004714
00397	12168217	9.818568	0.352749	0.267208	-0.001777	0.002654	-0.003253
00398	12168267	9.815073	0.373504	0.250665	-0.002557	0.001160	0.000296
00399	12168317	9.798467	0.371310	0.244812	-0.004970	0.004728	-0.001215
00400	12168367	9.807295	0.370982	0.242630	-0.004721	0.004057	-0.000482
00401	12168417	9.800868	0.362335	0.258857	-0.004479	0.000220	-0.000150
00402	12168467	9.812611	0.360147	0.251879	-0.001748	0.002012	0.000172
00403	12168517	9.816018	0.332276	0.258238	-0.007158	-0.001512	-0.004291
00404	12168567	9.823340	0.347135	0.237222	-0.000359	0.002222	-0.003873
00405	12168617	9.814318	0.341328	0.245168	-0.008716	0.000662	-0.000940
00406	12168667	9.824429	0.350416	0.248635	-0.003234	-0.000723	0.000414
00407	12168717	9.805699	0.358196	0.256793	-0.003498	0.003722	-0.002060
00408	12168767	9.811523	0.352184	0.251383	-0.001384	-0.000434	-0.000101
00409	12168817	9.808260	0.349082	0.246407	-0.005332	0.001949	-0.000077
00410	12168867	9.830818	0.351206	0.253228	-0.003690	0.000256	-0.004031
00411	12168917	9.810957	0.367615	0.272774	-0.002898	0.002096	0.002673
00412	12168967	9.802601	0.364209	0.246745	-0.004818	0.003926	-0.001253
00413	12169017	9.794728	0.352502	0.232524	-0.005392	0.000556	-0.003316
00414	12169067	9.803399	0.358341	0.243758	-0.002964	0.000793	-0.001948
00415	12169117	9.806914	0.360412	0.248409	-0.003850	0.005747	-0.001214
00416	12169167	9.802721	0.340407	0.235170	-0.005328	0.001951	0.000948
00417	12169217	9.818734	0.370590	0.242754	-0.007486	0.001429	0.000215
00418	12169267	9.799253	0.364663	0.247464	-0.005639	0.005618	-0.001402
00419	12169317	9.820873	0.349260	0.247782	-0.007508	0.001907	-0.001419
00420	12169367	9.816053	0.352861	0.249882	-0.006432	-0.000716	0.000776
00421	12169417	9.806807	0.350741	0.247392	-0.002886	0.002471	-0.002646
00422	12169467	9.789584	0.356605	0.247595	-0.003304	-0.001566	0.000702
00423	12169517	9.803664	0.364194	0.265780	-0.002454	-0.000266	-0.002465
00424	12169567	9.808626	0.359578	0.244247	-0.005341	0.002205	-0.002030
00425	12169617	9.810487	0.347161	0.236254	-0.004894	-0.001953	-0.001831
00426	12169667	9.811464	0.360262	0.245630	-0.003234	0.001309	0.000039
00427	12169717	9.831794	0.351937	0.246553	-0.006072	0.002194	0.000854
00428	12169767	9.822316	0.369776	0.241719	-0.002246	0.000320	-0.001504
00429	12169817	9.818265	0.365003	0.252747	-0.001380	-0.000764	-0.000968
00430	12169867	9.826723	0.371616	0.258003	-0.003324	0.000308	0.001445
00431	12169917	9.803863	0.359733	0.242812	-0.001626	0.001138	-0.001565
00432	12169967	9.799632	0.351806	0.250299	-0.005752	0.001999	-0.002829
00433	12170017	9.790058	0.354192	0.252244	-0.002602	0.000969	0.002124
00434	12170067	9.790380	0.337468	0.234253	-0.005852	0.001064	-0.001612
00435	12170117	9.801182	0.358840	0.255136	-0.001860	0.004553	-0.001512
00436	12170167	9.810369	0.336197	0.239605	-0.006355	-0.002334	-0.002311
00437	12170217	9.810971	0.360490	0.247306	-0.006464	0.000246	-0.001173
00438	12170267	9.827452	0.356806	0.246491	-0.004607	0.000916	-0.004218
00439	12170317	9.832319	0.365803	0.249883	-0.005341	0.002037	-0.004695
00440	12170367	9.815887	0.369603	0.243177	-0.005371	0.000169	-0.001109
00441	12170417	9.819963	0.364028	0.247923	-0.002844	-0.002147	-0.002735
00442	12170467	9.808063	0.376980	0.261007	-0.002678	0.002258	0.001489
00443	12170517	9.790423	0.370059	0.238778	-0.004202	-0.000354	0.000260
00444	12170567	9.783982	0.352024	0.238400	-0.005393	0.003846	-0.002146
00445	12170617	9.797526	0.354139	0.239302	-0.001661	0.002971	-0.003863
00446	12170667	9.800022	0.346473	0.237054	-0.006650	0.000150	-0.000592
00447	12170717	9.789953	0.370555	0.237125	-0.003331	0.001695	0.002003
00448	12170767	9.803198	0.371981	0.249290	-0.005665	0.001391	-0.001072
00449	12170817	9.818192	0.355950	0.243655	-0.005664	0.000098	-0.002744
00450	12170867	9.828224	0.358056	0.235047	-0.002898	-0.000337	-0.001827
00451	12170917	9.841819	0.354851	0.239078	-0.003809	0.002293	-0.001172
00452	12170967	9.815259	0.344547	0.241365	-0.006039	0.002865	-0.003690
00453	12171017	9.809056	0.366594	0.236704	-0.003576	-0.000189	-0.002815
00454	12171067	9.791113	0.354456	0.236174	-0.002877	0.001215	-0.001559
00455	12171117	9.806113	0.344366	0.256030	-0.002579	0.001131	0.001836
00456	12171167	9.779925	0.368135	0.246135	-0.003166	0.004504	0.000225
00457	12171217	9.786292	0.351091	0.252086	-0.004993	0.002403	-0.001933
00458	12171267	9.810232	0.347589	0.239940	-0.008496	0.002953	-0.001024
00459	12171317	9.793633	0.374485	0.249684	-0.004566	0.004186	-0.000964
00460	12171367	9.814836	0.367578	0.223804	-0.004003	-0.000777	-0.001666
00461	12171417	9.832279	0.359306	0.230977	-0.007532	0.002944	0.000381
00462	12171467	9.824564	0.349799	0.265865	-0.002025	-0.001812	-0.004110
00463	12171517	9.810950	0.371001	0.230585	-0.006522	0.002082	-0.003310
00464	12171567	9.811724	0.343094	0.238213	-0.005508	0.001492	-0.001232
00465	12171617	9.798187	0.353440	0.249236	-0.004652	-0.001531	-0.002020
00466	12171667	9.772949	0.359936	0.235583	-0.006639	0.003023	-0.000097
00467	12171717	9.778610	0.341942	0.241795	-0.002883	0.003407	-0.002510
00468	12171767	9.798818	0.348713	0.234691	-0.003941	-0.000647	-0.002208
00469	12171817	9.806410	0.364281	0.244945	-0.005256	0.000595	-0.001559
00470	12171867	9.808022	0.348111	0.248521	-0.002916	0.001239	-0.002846
00471	12171917	9.825014	0.357565	0.254964	-0.005504	0.002228	-0.002769
00472	12171967	9.829305	0.363668	0.240476	-0.004276	-0.000104	-0.000794
00473	12172017	9.834379	0.366678	0.261381	-0.004571	0.000417	0.002985
00474	12172067	9.822857	0.355929	0.260943	-0.003074	0.002370	-0.001973
00475	12172117	9.802459	0.368481	0.259794	-0.003216	0.000048	0.000519
00476	12172167	9.799901	0.350400	0.247793	-0.006485	-0.001109	-0.000861
00477	12172217	9.808889	0.340482	0.238457	-0.000911	-0.001498	-0.001485
00478	12172267	9.794998	0.340321	0.251648	-0.001722	-0.002125	-0.001838
00479	12172317	9.800096	0.364619	0.264612	-0.003622	-0.000669	-0.000639
00480	12172367	9.778868	0.353795	0.253049	-0.003091	0.002085	0.000271
00481	12172417	9.814686	0.348187	0.249933	-0.006302	0.001248	-0.001650
00482	12172467	9.827218	0.341869	0.237240	-0.004983	0.004146	-0.001477
00483	12172517	9.844155	0.367872	0.257216	-0.000367	0.001771	-0.001057
00484	12172567	9.832152	0.343215	0.245561	-0.003235	0.002502	-0.000593
00485	12172617	9.837169	0.359439	0.248827	-0.001981	-0.000034	-0.002184
00486	12172667	9.816796	0.352559	0.244936	-0.003418	0.002044	-0.000498
00487	12172717	9.801925	0.354395	0.258669	-0.004087	0.001364	0.003409
00488	12172767	9.813218	0.332028	0.249296	-0.003768	0.004104	-0.000936
00489	12172817	9.774036	0.343965	0.246793	-0.006136	0.000961	-0.003505
00490	12172867	9.791739	0.342879	0.234831	-0.006890	0.003923	0.000133
00491	12172917	9.798198	0.346761	0.222712	-0.003812	0.001287	-0.003353
00492	12172967	9.818021	0.346887	0.251131	-0.001089	0.001544	0.001771
00493	12173017	9.834676	0.346255	0.255394	-0.003728	0.002582	-0.003155
00494	12173067	9.835739	0.362590	0.241912	-0.003958	-0.000035	-0.001602
00495	12173117	9.822459	0.361268	0.236264	-0.004160	0.002452	0.000114
00496	12173167	9.828256	0.348158	0.248820	-0.004836	0.003435	-0.002508
00497	12173217	9.815469	0.362161	0.247765	-0.006326	-0.000975	0.000421
00498	12173267	9.789119	0.357342	0.245121	-0.004313	0.004356	-0.000098
00499	12173317	9.776849	0.352160	0.235793	-0.006276	0.003608	-0.000029
00500	12173367	9.788107	0.346213	0.237360	-0.006405	-0.000659	-0.002844
00501	12173417	9.788999	0.347479	0.245722	-0.005071	-0.000507	-0.003166
00502	12173467	9.801397	0.364862	0.246366	-0.001609	-0.000438	-0.000226
00503	12173517	9.808480	0.356440	0.235367	-0.003460	0.001302	-0.001402
00504	12173567	9.818974	0.357838	0.228851	-0.006430	0.002211	-0.002480
00505	12173617	9.842159	0.367213	0.234199	-0.004945	-0.000144	0.000803
00506	12173667	9.823841	0.378655	0.247722	-0.002245	-0.000679	-0.000646
00507	12173717	9.814094	0.362325	0.239162	0.000612	0.002215	-0.000316
00508	12173767	9.811379	0.368426	0.241531	-0.003696	-0.000320	-0.000668
00509	12173817	9.813254	0.349700	0.246180	-0.003450	0.001943	-0.002905
00510	12173867	9.775699	0.347172	0.239170	-0.004824	0.001919	-0.003889
00511	12173917	9.772108	0.354100	0.229321	-0.004414	0.001381	0.000403
00512	12173967	9.795539	0.346423	0.229409	-0.005370	0.002073	-0.003087
00513	12174017	9.791798	0.357633	0.233403	-0.003599	0.005043	-0.000320
00514	12174067	9.816514	0.350996	0.255901	-0.004882	0.000658	-0.002682
00515	12174117	9.820923	0.346048	0.246825	-0.005441	0.002791	0.003579
00516	12174167	9.833538	0.355062	0.267119	-0.007477	0.000998	-0.001907
00517	12174217	9.839315	0.347727	0.233008	-0.004198	-0.000547	0.000317
00518	12174267	9.831300	0.349620	0.255571	-0.004395	-0.000164	0.001188
00519	12174317	9.833394	0.345795	0.232383	-0.003957	0.002101	-0.000403
00520	12174367	9.800801	0.359809	0.238073	-0.001797	0.002685	0.000463
00521	12174417	9.802854	0.339992	0.253797	-0.006660	-0.001893	-0.004355
00522	12174467	9.773081	0.361258	0.249268	-0.003152	0.003788	-0.003947
00523	12174517	9.797544	0.351833	0.242103	-0.003873	0.001457	-0.000209
00524	12174567	9.795822	0.337238	0.240678	-0.003375	0.000523	-0.003456
00525	12174617	9.813386	0.354284	0.254283	-0.005432	0.001974	-0.002255
00526	12174667	9.827973	0.360180	0.232867	-0.005939	0.000904	-0.000146
00527	12174717	9.837064	0.356854	0.232288	-0.003395	0.001068	-0.004671
00528	12174767	9.827340	0.365562	0.247849	-0.007625	0.005239	0.003119
00529	12174817	9.835050	0.355874	0.252036	-0.007603	0.001701	-0.005362
00530	12174867	9.818305	0.362418	0.252021	-0.005624	0.001068	-0.001235
00531	12174917	9.795642	0.348702	0.246907	-0.005342	0.000072	-0.002202
00532	12174967	9.792009	0.367294	0.256719	-0.006375	-0.001628	-0.003716
00533	12175017	9.789805	0.341698	0.241520	-0.002846	0.002143	-0.003962
00534	12175067	9.784431	0.352971	0.240783	-0.005231	0.002785	-0.002538
00535	12175117	9.799524	0.364248	0.242876	-0.004097	0.002320	-0.002320
00536	12175167	9.814923	0.365152	0.252645	-0.003636	0.001074	0.000105
00537	12175217	9.812520	0.357945	0.232956	-0.006128	0.001702	-0.002672
00538	12175267	9.814999	0.366542	0.238418	-0.004882	0.002021	0.000243
00539	12175317	9.814857	0.367177	0.260210	-0.005752	0.000361	0.002125
00540	12175367	9.826512	0.338394	0.243703	-0.004852	0.002054	0.000336
00541	12175417	9.826163	0.345545	0.246747	-0.003234	0.001370	-0.000504
00542	12175467	9.802655	0.368321	0.227252	-0.000679	-0.000624	-0.002088
00543	12175517	9.812207	0.360601	0.240184	-0.004918	0.003245	-0.000906
00544	12175567	9.790212	0.348599	0.239080	-0.006405	0.001273	-0.004753
00545	12175617	9.792599	0.353027	0.229106	-0.003018	-0.001765	-0.003368
00546	12175667	9.801681	0.339233	0.252437	0.000513	0.003238	-0.002874
00547	12175717	9.826537	0.353169	0.249018	0.000295	-0.001319	-0.004434
00548	12175767	9.824654	0.350904	0.248961	-0.005446	0.001427	-0.001395
00549	12175817	9.818045	0.358144	0.263104	0.000644	0.000249	0.001051
00550	12175867	9.830585	0.351685	0.252041	-0.003934	0.002225	-0.001876
00551	12175917	9.822661	0.354824	0.255874	-0.004601	0.001087	-0.001687
00552	12175967	9.823399	0.355620	0.250334	-0.003946	0.000549	-0.001723
00553	12176017	9.800677	0.367337	0.242370	-0.004721	0.000761	-0.001685
00554	12176067	9.783415	0.359330	0.238871	-0.005548	0.002877	-0.000004
00555	12176117	9.791080	0.348281	0.253168	-0.008840	-0.000305	-0.000594
00556	12176167	9.803988	0.329105	0.246425	-0.003632	0.000879	-0.001147
00557	12176217	9.796961	0.352120	0.257340	-0.005918	0.004520	-0.000638
00558	12176267	9.804338	0.371675	0.257022	-0.006605	0.005923	-0.001238
00559	12176317	9.838410	0.338086	0.244779	-0.004695	0.000086	0.000420
00560	12176367	9.818961	0.375955	0.233913	-0.005806	0.002874	0.000409
00561	12176417	9.838831	0.348667	0.233206	-0.003359	0.000239	-0.000125
00562	12176467	9.812479	0.347943	0.259524	-0.007650	0.000521	0.001236
00563	12176517	9.818995	0.363795	0.252560	-0.001857	0.001494	0.001226
00564	12176567	9.813460	0.352798	0.245915	-0.003792	0.001612	-0.004221
00565	12176617	9.806028	0.356772	0.245594	-0.007261	-0.001197	-0.005470
00566	12176667	9.787595	0.354725	0.265102	-0.002954	-0.002665	-0.002796
00567	12176717	9.798704	0.368882	0.249716	-0.004739	-0.001760	-0.002020
00568	12176767	9.804003	0.349113	0.240883	-0.007373	0.000009	0.001039
00569	12176817	9.808819	0.356737	0.256703	-0.005242	0.002269	-0.000139
00570	12176867	9.821903	0.347837	0.237162	0.000045	-0.000449	-0.003951
00571	12176917	9.805306	0.366293	0.227369	-0.003116	-0.002802	-0.005235
00572	12176967	9.813627	0.367430	0.228597	-0.003557	0.000430	-0.000791
00573	12177017	9.817162	0.357878	0.251909	-0.005129	0.001790	0.000916
00574	12177067	9.825036	0.340253	0.247702	0.001775	-0.000285	-0.000015
00575	12177117	9.810247	0.346112	0.238920	-0.003599	-0.000218	-0.001343
00576	12177167	9.800879	0.372860	0.236898	-0.006244	0.003606	-0.000674
00577	12177217	9.784026	0.366701	0.240794	-0.002734	0.002730	-0.002705
00578	12177267	9.784533	0.369619	0.228780	-0.002279	0.002810	0.001077
00579	12177317	9.806592	0.348133	0.248839	-0.000884	0.003927	-0.001456
00580	12177367	9.803837	0.358305	0.250735	-0.004842	0.001532	-0.003055
00581	12177417	9.789034	0.362675	0.247442	-0.002313	0.000345	-0.004997
00582	12177467	9.804301	0.371725	0.263021	-0.000630	0.003453	0.002389
00583	12177517	9.819118	0.358832	0.241944	-0.005297	-0.000087	-0.000472
00584	12177567	9.803658	0.352330	0.253311	-0.006112	-0.001013	-0.004223
00585	12177617	9.814072	0.343534	0.242125	-0.005393	0.001945	-0.001392
00586	12177667	9.816515	0.353709	0.250155	-0.005078	0.000620	-0.004122
00587	12177717	9.820189	0.333501	0.236321	-0.005555	0.003009	-0.000809
00588	12177767	9.804354	0.354692	0.250920	-0.009155	0.000294	-0.002766
00589	12177817	9.796115	0.334346	0.239064	-0.000679	0.001346	-0.002912
00590	12177867	9.799173	0.343809	0.263007	-0.007077	0.002490	-0.002635
00591	12177917	9.824952	0.331671	0.239623	-0.001631	0.002235	-0.002425
00592	12177967	9.790703	0.383959	0.242375	-0.003351	0.000080	0.000133
00593	12178017	9.812805	0.364469	0.250089	-0.006962	-0.002276	-0.000380
00594	12178067	9.802472	0.372192	0.248982	-0.003504	-0.001345	-0.000194
00595	12178117	9.832289	0.357877	0.232172	-0.004391	0.002835	0.001588
00596	12178167	9.822714	0.349856	0.257065	-0.001662	-0.000096	-0.002629
00597	12178217	9.802814	0.356101	0.265836	-0.006516	0.002021	-0.001641
00598	12178267	9.814466	0.347465	0.247849	-0.007717	0.003780	-0.000445
00599	12178317	9.796992	0.362661	0.231595	-0.003421	0.003305	-0.001223
00600	12178367	9.790463	0.358961	0.255086	-0.002410	0.000443	-0.002430
00601	12178417	9.806468	0.350142	0.226463	-0.004622	-0.000633	-0.004386
00602	12178467	9.816009	0.355296	0.252157	-0.007705	0.002126	-0.002634
00603	12178517	9.790744	0.368639	0.268349	-0.004292	0.002711	0.000119
00604	12178567	9.798885	0.360249	0.237162	-0.006267	0.003349	0.000256
00605	12178617	9.820574	0.348903	0.257094	-0.006400	-0.000725	-0.002142
00606	12178667	9.833559	0.326956	0.244073	-0.004756	0.001790	-0.003062
00607	12178717	9.825752	0.355502	0.254451	-0.003596	-0.000117	0.001635
00608	12178767	9.820719	0.357703	0.255408	-0.000428	0.001346	-0.002950
00609	12178817	9.810223	0.345775	0.244277	-0.006365	0.003479	0.001728
00610	12178867	9.827016	0.356091	0.241791	-0.005790	0.003093	-0.004557
00611	12178917	9.791291	0.360092	0.234966	-0.003391	-0.000029	-0.005155
00612	12178967	9.810348	0.335169	0.244720	-0.004353	0.001220	-0.001208
00613	12179017	9.809098	0.355669	0.252193	-0.003441	0.002785	-0.001710
00614	12179067	9.814966	0.345865	0.247118	-0.004269	0.003769	-0.001705
00615	12179117	9.807921	0.365564	0.267996	-0.004470	0.001127	0.000397
00616	12179167	9.806044	0.363076	0.229829	-0.003564	-0.000443	-0.000702
00617	12179217	9.809705	0.350087	0.242067	-0.005874	0.000972	0.000174
00618	12179267	9.820318	0.371015	0.254497	-0.004757	0.000919	-0.002363
00619	12179317	9.808494	0.355651	0.234221	-0.004609	0.004639	0.000547
00620	12179367	9.811038	0.338769	0.241800	-0.007787	0.000736	-0.001553
00621	12179417	9.795640	0.367233	0.247750	-0.006561	0.003338	-0.004487
00622	12179467	9.808050	0.354696	0.230558	-0.000922	0.000289	0.003010
00623	12179517	9.807977	0.352505	0.246897	-0.003583	0.001262	-0.002011
00624	12179567	9.797410	0.359035	0.248393	-0.007330	0.001690	0.001594
00625	12179617	9.810252	0.358277	0.252824	-0.006808	0.000013	-0.001815
00626	12179667	9.793096	0.378461	0.251294	-0.005073	0.003114	-0.000099
00627	12179717	9.800463	0.361202	0.249915	-0.006542	0.005225	0.001802
00628	12179767	9.822503	0.352313	0.247455	-0.001090	0.000277	-0.000453
00629	12179817	9.796398	0.368043	0.238987	-0.000709	0.000381	-0.000031
00630	12179867	9.799993	0.367954	0.235380	-0.004144	-0.000263	-0.001723
00631	12179917	9.808784	0.355998	0.263493	-0.002208	-0.003070	-0.002927
00632	12179967	9.808577	0.351172	0.230167	-0.005996	0.003938	-0.000990
00633	12180017	9.811770	0.347774	0.258063	-0.001460	-0.001051	-0.000579
00634	12180067	9.812160	0.346416	0.237266	-0.000280	0.000066	-0.000895
00635	12180117	9.827653	0.344739	0.238646	-0.005300	0.002977	-0.002664
00636	12180167	9.808584	0.362822	0.243266	-0.005854	-0.000542	0.001487
00637	12180217	9.816312	0.347847	0.256814	-0.006797	-0.000370	-0.001744
00638	12180267	9.805548	0.357064	0.245673	-0.003091	0.000150	0.001320
00639	12180317	9.826324	0.340951	0.269085	-0.005064	0.001398	-0.004532
00640	12180367	9.801791	0.355731	0.240219	-0.005975	0.002225	-0.000100
00641	12180417	9.804686	0.354501	0.236571	-0.003678	0.000001	-0.003739
00642	12180467	9.788578	0.340909	0.249340	-0.006281	0.001002	0.002617
00643	12180517	9.794513	0.372383	0.227716	-0.005425	0.000175	0.001235
00644	12180567	9.805369	0.365869	0.255524	-0.004329	0.002278	-0.005777
00645	12180617	9.796836	0.372393	0.236112	-0.002303	0.002059	-0.003824
00646	12180667	9.810817	0.369865	0.253575	0.000326	0.001305	0.000615
00647	12180717	9.802568	0.354992	0.230591	-0.007197	-0.000769	-0.002263
00648	12180767	9.816505	0.345235	0.269100	-0.000404	0.001132	0.000362
00649	12180817	9.818007	0.351672	0.244482	-0.003442	0.002979	-0.000714
00650	12180867	9.809091	0.355930	0.252302	-0.002579	-0.001301	-0.002789
00651	12180917	9.804605	0.352984	0.251901	-0.003201	0.000206	-0.001850
00652	12180967	9.806151	0.368691	0.239903	-0.002602	-0.000788	-0.005061
00653	12181017	9.789665	0.364153	0.257046	-0.003587	0.003592	-0.001859
00654	12181067	9.810802	0.352654	0.251000	-0.003584	0.002427	-0.000811
00655	12181117	9.793314	0.364058	0.244518	-0.002474	0.000709	-0.000402
00656	12181167	9.798588	0.345881	0.236837	-0.002809	-0.000014	-0.002686
00657	12181217	9.820993	0.339538	0.248541	-0.003816	0.002421	-0.003120
00658	12181267	9.824209	0.346588	0.252307	-0.004130	0.001358	-0.001425
00659	12181317	9.820589	0.349627	0.254204	-0.006871	-0.001051	-0.003003
00660	12181367	9.818232	0.350113	0.249480	-0.003861	0.001103	-0.000658
00661	12181417	9.808148	0.350465	0.261279	-0.003131	0.002445	0.001206
00662	12181467	9.811614	0.368929	0.242206	-0.004962	-0.000597	-0.001016
00663	12181517	9.808106	0.350589	0.229426	-0.006934	0.001179	-0.000617
00664	12181567	9.815170	0.348626	0.246781	-0.003980	-0.000315	0.000489
00665	12181617	9.811508	0.340928	0.238839	-0.003359	-0.000792	-0.000252
00666	12181667	9.788873	0.359382	0.241145	-0.002889	-0.001528	-0.001023
00667	12181717	9.799738	0.369344	0.236851	-0.005790	0.001290	-0.002252
00668	12181767	9.808669	0.357752	0.239890	-0.005235	0.000010	-0.001591
00669	12181817	9.810995	0.361519	0.240861	-0.003609	0.001236	-0.001107
00670	12181867	9.819737	0.348273	0.241056	-0.000342	0.001339	0.004523
00671	12181917	9.829155	0.339761	0.236269	-0.005608	0.001718	0.001366
00672	12181967	9.831191	0.338865	0.256074	-0.001732	-0.000903	-0.004108
00673	12182017	9.821252	0.357552	0.246404	-0.000282	0.003359	-0.000461
00674	12182067	9.801363	0.370596	0.239007	-0.004920	0.001981	-0.003756
00675	12182117	9.790676	0.348714	0.240533	-0.004215	0.003294	0.000254
00676	12182167	9.795831	0.349101	0.254127	-0.001588	0.000852	-0.001914
00677	12182217	9.814495	0.347119	0.243174	-0.003889	-0.000192	-0.002427
00678	12182267	9.799713	0.357288	0.264417	-0.002167	0.000066	-0.001147
00679	12182317	9.826409	0.362730	0.249651	-0.007644	0.001425	0.000253
00680	12182367	9.805548	0.353842	0.251684	-0.008421	0.001270	-0.005677
00681	12182417	9.838980	0.349721	0.245219	-0.006413	-0.001300	-0.000762
00682	12182467	9.828557	0.361283	0.251775	-0.004286	0.000519	0.002190
00683	12182517	9.799844	0.354943	0.247736	-0.004067	0.003515	-0.002152
00684	12182567	9.820251	0.349560	0.231444	-0.005600	-0.000971	-0.004478
00685	12182617	9.829247	0.341884	0.256606	-0.005263	0.001881	-0.001323
00686	12182667	9.786224	0.345689	0.234708	-0.002509	0.000737	-0.001686
00687	12182717	9.792672	0.355466	0.250827	-0.004398	0.003000	-0.000902
00688	12182767	9.820331	0.332503	0.253551	-0.000756	0.001869	-0.000243
00689	12182817	9.812610	0.348121	0.237734	-0.001972	0.000747	-0.002333
00690	12182867	9.820010	0.354675	0.260877	-0.006373	-0.000396	0.000078
00691	12182917	9.823854	0.362865	0.238443	-0.003675	0.002595	0.002939
00692	12182967	9.814311	0.360960	0.245898	-0.004154	0.002588	0.002397
00693	12183017	9.805392	0.347602	0.251396	-0.004395	0.000539	-0.003286
00694	12183067	9.819289	0.365911	0.239591	-0.004902	0.001563	-0.001197
00695	12183117	9.818612	0.366502	0.230435	-0.005656	-0.001591	-0.008906
00696	12183167	9.796025	0.357052	0.244725	-0.003308	-0.000378	-0.002207
00697	12183217	9.812748	0.354425	0.241858	-0.004821	0.002247	0.000055
00698	12183267	9.814408	0.353921	0.244149	-0.006559	-0.001560	0.000105
00699	12183317	9.822676	0.350406	0.262127	-0.006569	0.000801	0.001012
00700	12183367	9.802452	0.345753	0.229939	-0.006049	0.003450	-0.002147
00701	12183417	9.797891	0.342146	0.242815	-0.001998	-0.000320	-0.001855
00702	12183467	9.818480	0.372149	0.242434	-0.002550	-0.000368	-0.004642
00703	12183517	9.809472	0.352828	0.234877	-0.005440	0.001624	0.001082
00704	12183567	9.773948	0.371545	0.243327	-0.001035	-0.002629	-0.002702
00705	12183617	9.830089	0.347148	0.224634	-0.001752	-0.002255	-0.003634
00706	12183667	9.804693	0.380441	0.259618	-0.001314	0.002372	-0.001907
00707	12183717	9.817260	0.374465	0.241771	-0.004374	0.002027	-0.002927
00708	12183767	9.817872	0.361749	0.246074	-0.004070	-0.000257	0.000747
00709	12183817	9.805824	0.354053	0.245232	-0.002087	0.002649	-0.001454
00710	12183867	9.821306	0.351093	0.250841	-0.007360	0.000294	-0.002672
00711	12183917	9.810448	0.360343	0.255471	-0.002209	0.001620	0.000432
00712	12183967	9.799873	0.357600	0.237545	-0.003567	0.001012	0.000560
00713	12184017	9.799967	0.348530	0.241229	-0.005883	0.003360	0.000321
00714	12184067	9.819713	0.362715	0.253814	-0.002383	0.002836	-0.002190
00715	12184117	9.811024	0.347922	0.264369	-0.000928	0.003218	-0.002835
00716	12184167	9.796419	0.362980	0.246423	-0.003504	0.000882	-0.000817
00717	12184217	9.810007	0.366072	0.238733	-0.000935	0.001735	0.000108
00718	12184267	9.808329	0.357236	0.258649	-0.001189	0.002502	-0.002772
00719	12184317	9.831470	0.341811	0.242843	-0.006156	-0.001002	0.001419
00720	12184367	9.816084	0.371222	0.246626	-0.005221	0.001632	-0.000329
00721	12184417	9.817043	0.357236	0.233411	-0.002816	0.001380	0.000142
00722	12184467	9.803430	0.342659	0.231606	-0.002033	0.002810	-0.002609
00723	12184517	9.804896	0.339015	0.233431	-0.002855	0.000636	0.000364
00724	12184567	9.795341	0.355702	0.243112	-0.008301	0.001697	-0.003397
00725	12184617	9.794766	0.357381	0.254874	-0.005070	0.002822	-0.002085
00726	12184667	9.800790	0.359490	0.239707	-0.006373	-0.000425	-0.000113
00727	12184717	9.828356	0.354178	0.260613	-0.005890	-0.000876	-0.003644
00728	12184767	9.835347	0.352987	0.249118	-0.002144	0.000196	-0.001790
00729	12184817	9.818907	0.345548	0.264854	-0.004859	0.003508	0.000896
00730	12184867	9.819362	0.358247	0.243779	-0.009290	0.004010	0.000685
00731	12184917	9.808688	0.370919	0.248725	-0.005507	-0.000577	-0.002170
00732	12184967	9.791360	0.372550	0.235999	-0.004163	0.003351	-0.002823
00733	12185017	9.786778	0.378980	0.232787	-0.004558	-0.000596	-0.005376
00734	12185067	9.801009	0.353094	0.256714	-0.004633	0.001252	-0.000237
00735	12185117	9.792519	0.365701	0.255156	-0.007739	0.002159	-0.003397
00736	12185167	9.810625	0.369834	0.246652	-0.008808	0.001428	-0.004872
00737	12185217	9.817965	0.372018	0.248058	-0.007876	0.004580	-0.002038
00738	12185267	9.810383	0.352790	0.241867	-0.002484	0.004099	-0.000838
00739	12185317	9.806609	0.361273	0.257269	-0.004580	0.003607	-0.000610
00740	12185367	9.831004	0.344292	0.235950	-0.003511	-0.000955	0.000513
00741	12185417	9.832053	0.363468	0.259514	-0.006450	0.004923	-0.002813
00742	12185467	9.824421	0.354225	0.242186	-0.004049	-0.000559	-0.005957
00743	12185517	9.796154	0.349776	0.237808	-0.000373	0.000806	-0.001661
00744	12185567	9.799659	0.352386	0.244286	-0.007703	0.002227	-0.000993
00745	12185617	9.802918	0.344941	0.233059	-0.007492	0.003620	-0.000986
00746	12185667	9.801641	0.343338	0.251158	-0.003956	0.001674	-0.005558
00747	12185717	9.802513	0.374485	0.238880	-0.008723	0.006408	-0.000358
00748	12185767	9.814381	0.356276	0.244122	-0.004751	0.000024	0.000846
00749	12185817	9.809140	0.372264	0.250445	-0.004651	0.001861	-0.000907
00750	12185867	9.826767	0.357141	0.241572	-0.002456	0.003488	0.002429
00751	12185917	9.826704	0.382353	0.239796	-0.006735	0.000022	0.000115
00752	12185967	9.823452	0.356243	0.239996	-0.007363	-0.000445	-0.000147
00753	12186017	9.790389	0.348070	0.249799	-0.004068	-0.000282	0.001292
00754	12186067	9.799503	0.332307	0.232784	-0.006363	0.002380	-0.000197
00755	12186117	9.813402	0.340006	0.242106	-0.001647	0.002717	-0.002453
00756	12186167	9.816875	0.350485	0.236426	-0.008261	-0.002589	-0.000859
00757	12186217	9.782043	0.355072	0.237185	-0.002220	0.001904	-0.000368
00758	12186267	9.797140	0.367362	0.236648	-0.001978	0.002261	-0.001842
00759	12186317	9.826512	0.344168	0.231163	-0.002123	-0.000515	-0.001889
00760	12186367	9.808866	0.356132	0.249918	-0.000377	0.000100	-0.000383
00761	12186417	9.838822	0.344755	0.243614	-0.002016	0.002230	-0.001715
00762	12186467	9.830070	0.353997	0.253424	-0.000151	-0.000065	-0.001379
00763	12186517	9.811538	0.357227	0.278044	-0.001084	0.001245	-0.001659
00764	12186567	9.807875	0.358317	0.251717	-0.006207	0.004351	-0.001851
00765	12186617	9.786698	0.380428	0.242406	-0.001551	0.000751	-0.001461
00766	12186667	9.797568	0.353188	0.233770	-0.008497	0.002086	-0.001505
00767	12186717	9.799335	0.343380	0.237564	-0.003506	0.002078	-0.000172
00768	12186767	9.796734	0.359475	0.240480	-0.004571	0.000118	-0.001875
00769	12186817	9.792674	0.365315	0.230844	-0.003140	-0.000764	-0.003556
00770	12186867	9.810381	0.355475	0.237310	-0.002579	0.002761	-0.004081
00771	12186917	9.818693	0.358444	0.235129	-0.000060	0.003200	-0.001458
00772	12186967	9.832045	0.349781	0.250538	-0.004020	-0.000028	-0.000633
00773	12187017	9.820220	0.364920	0.245191	-0.005783	0.004196	-0.002430
00774	12187067	9.819582	0.373000	0.253954	-0.003459	0.000762	0.003316
00775	12187117	9.829984	0.341601	0.253848	-0.003155	-0.002075	0.002174
00776	12187167	9.807214	0.359116	0.241309	-0.002961	-0.001106	0.000097
00777	12187217	9.796927	0.365239	0.235740	-0.000144	0.004143	-0.000006
00778	12187267	9.785872	0.356930	0.230444	-0.005312	0.001367	-0.001001
00779	12187317	9.790646	0.361233	0.258707	-0.001870	0.002011	0.000624
00780	12187367	9.794875	0.352996	0.246136	-0.004800	-0.000592	-0.000084
00781	12187417	9.810005	0.345124	0.241872	-0.007158	0.000075	0.000018
00782	12187467	9.824744	0.360665	0.252301	-0.005651	0.000740	-0.003761
00783	12187517	9.825950	0.346806	0.240328	-0.006083	0.001289	-0.002509
00784	12187567	9.822689	0.360344	0.240417	-0.001391	0.004787	-0.003146
00785	12187617	9.821764	0.370794	0.252295	-0.004727	0.000118	-0.000888
00786	12187667	9.820552	0.351610	0.257186	-0.004578	0.002740	0.001272
00787	12187717	9.810821	0.348771	0.257135	-0.000194	0.000329	-0.000545
00788	12187767	9.802298	0.349538	0.247786	-0.000422	-0.001813	-0.003538
00789	12187817	9.790559	0.362740	0.230593	-0.007605	0.000868	-0.004875
00790	12187867	9.807767	0.336570	0.235801	-0.004193	-0.000074	-0.006367
00791	12187917	9.791290	0.364869	0.224633	-0.001790	0.000264	-0.001147
00792	12187967	9.815172	0.353378	0.237534	-0.006727	0.002500	-0.001511
00793	12188017	9.811069	0.363834	0.263399	-0.005080	0.001276	-0.000651
00794	12188067	9.837979	0.358643	0.236396	-0.004277	0.000899	-0.001781
00795	12188117	9.833429	0.368488	0.257174	-0.002431	0.005382	-0.002980
00796	12188167	9.828296	0.354918	0.269542	-0.003934	0.001295	-0.001425
00797	12188217	9.822927	0.335180	0.253242	-0.007385	0.001266	-0.000165
00798	12188267	9.805126	0.335381	0.241283	-0.004498	-0.001232	-0.000157
00799	12188317	9.794662	0.355910	0.236093	-0.003423	-0.000533	0.000971
00800	12188367	9.794141	0.358342	0.238033	-0.006422	0.000729	-0.003119
00801	12188417	9.794612	0.358025	0.240474	-0.007024	-0.000114	-0.000270
00802	12188467	9.784150	0.361815	0.268605	-0.004573	0.003215	-0.004136
00803	12188517	9.815157	0.346458	0.254460	-0.002868	0.000858	-0.002518
00804	12188567	9.807636	0.363445	0.241894	-0.006907	0.002141	-0.003210
00805	12188617	9.817324	0.347107	0.248398	-0.005602	0.005521	-0.003640
00806	12188667	9.814465	0.351662	0.239640	-0.004106	0.002643	-0.001832
00807	12188717	9.820030	0.335757	0.257537	-0.005006	-0.000077	0.000523
00808	12188767	9.820374	0.355043	0.239251	-0.006539	-0.003306	0.000092
00809	12188817	9.806740	0.368122	0.260293	-0.003337	-0.001504	-0.001892
00810	12188867	9.804362	0.358025	0.243025	-0.006554	0.000382	0.001397
00811	12188917	9.801639	0.347717	0.241529	-0.001664	0.004393	-0.003047
00812	12188967	9.799249	0.361509	0.253843	-0.006261	0.000993	-0.002316
00813	12189017	9.796909	0.341042	0.250353	-0.005033	0.003760	-0.001407
00814	12189067	9.780327	0.375232	0.244649	-0.003542	0.002473	0.002877
00815	12189117	9.794374	0.373318	0.248779	-0.004625	-0.000140	-0.001620
00816	12189167	9.800592	0.372067	0.246025	-0.002317	0.003673	-0.003564
00817	12189217	9.810885	0.362769	0.257132	-0.004329	0.000541	-0.002712
00818	12189267	9.840759	0.360888	0.243591	-0.005163	0.001858	0.000565
00819	12189317	9.826880	0.365322	0.244624	-0.002670	0.003701	-0.003789
00820	12189367	9.801461	0.379371	0.246397	-0.001720	0.000107	-0.001117
00821	12189417	9.799251	0.361424	0.253182	0.000152	0.000787	0.000295
00822	12189467	9.798670	0.348613	0.257965	-0.002218	0.002484	-0.004336
00823	12189517	9.804783	0.343457	0.242813	-0.005092	0.000366	-0.003221
00824	12189567	9.793696	0.355336	0.240021	-0.005336	0.002406	0.001280
00825	12189617	9.819062	0.356581	0.255972	-0.004546	0.002274	-0.005136
00826	12189667	9.801669	0.358845	0.253397	-0.001384	0.002730	0.000019
00827	12189717	9.812959	0.369948	0.253862	0.000093	0.004529	-0.001736
00828	12189767	9.815362	0.372644	0.244962	-0.002293	0.004165	0.000381
00829	12189817	9.833440	0.341537	0.232913	-0.003734	0.003137	-0.000939
00830	12189867	9.833413	0.353035	0.253454	-0.006162	0.001159	0.000603
00831	12189917	9.816137	0.349955	0.241529	-0.004682	0.000952	0.001145
00832	12189967	9.802274	0.353487	0.243474	-0.003066	0.000399	0.000627
00833	12190017	9.800329	0.348576	0.259120	-0.000975	0.000890	-0.000467
00834	12190067	9.810847	0.344885	0.260327	-0.006475	0.001954	0.000544
00835	12190117	9.821725	0.338330	0.247515	-0.007433	0.001770	-0.002238
00836	12190167	9.803598	0.362038	0.242140	-0.002492	0.002678	0.003681
00837	12190217	9.798339	0.365855	0.238443	-0.003024	-0.001918	0.002185
00838	12190267	9.813137	0.357410	0.248975	-0.001901	-0.000259	-0.001174
00839	12190317	9.812669	0.360911	0.241250	-0.006057	-0.002374	-0.002396
00840	12190367	9.814237	0.363413	0.251854	-0.004498	0.001347	0.002362
00841	12190417	9.797356	0.372889	0.267739	-0.004403	-0.000276	-0.004504
00842	12190467	9.808634	0.374912	0.249716	-0.004581	0.000564	-0.000519
00843	12190517	9.806485	0.352578	0.256992	-0.000576	0.003175	-0.005328
00844	12190567	9.803581	0.359816	0.249999	-0.002284	0.000997	0.000564
00845	12190617	9.811423	0.346459	0.240127	-0.001715	0.000804	-0.002805
00846	12190667	9.780243	0.364144	0.241818	-0.007062	0.003592	0.001234
00847	12190717	9.810249	0.350853	0.229635	-0.003290	0.001004	-0.003281
00848	12190767	9.805071	0.356600	0.247175	-0.005643	0.001999	-0.000064
00849	12190817	9.810067	0.350817	0.259598	-0.005535	0.003550	-0.001755
00850	12190867	9.818447	0.349712	0.253547	-0.003476	0.001500	0.004540
00851	12190917	9.811353	0.353319	0.237970	-0.006962	-0.000154	-0.001608
00852	12190967	9.819180	0.363197	0.262829	-0.003049	0.000590	-0.002065
00853	12191017	9.810006	0.361414	0.247557	-0.002474	0.000828	0.000724
00854	12191067	9.813019	0.365454	0.252501	-0.006089	-0.001403	-0.002485
00855	12191117	9.815331	0.349670	0.256831	-0.003994	-0.002810	0.001060
00856	12191167	9.785726	0.366608	0.235519	-0.001684	0.002935	-0.003336
00857	12191217	9.805778	0.343486	0.235423	-0.004458	0.001894	0.000764
00858	12191267	9.794400	0.345497	0.223233	-0.002866	0.001983	-0.002282
00859	12191317	9.805074	0.351973	0.256458	-0.000839	0.001724	-0.001106
00860	12191367	9.828134	0.355145	0.254971	-0.003751	0.002578	-0.002023
00861	12191417	9.817792	0.361005	0.221088	-0.003084	-0.001410	-0.002138
00862	12191467	9.820827	0.354144	0.244667	-0.006852	0.000889	0.002912
00863	12191517	9.798491	0.369338	0.244302	-0.005360	0.000267	0.001755
00864	12191567	9.811926	0.344256	0.240501	-0.003564	0.005136	-0.000182
00865	12191617	9.800555	0.337810	0.244314	-0.002252	0.003001	0.001084
00866	12191667	9.784896	0.368689	0.249952	-0.001707	-0.003290	-0.000164
00867	12191717	9.792568	0.367751	0.243386	-0.005744	0.001862	-0.002435
00868	12191767	9.801436	0.369668	0.231363	-0.004426	0.002693	-0.002593
00869	12191817	9.798444	0.364879	0.262694	-0.004962	0.000426	-0.001545
00870	12191867	9.806088	0.342204	0.264829	-0.003195	0.000069	-0.003190
00871	12191917	9.824255	0.362711	0.252532	-0.000548	0.002635	-0.001451
00872	12191967	9.809852	0.354877	0.246459	-0.005334	0.002094	-0.003048
00873	12192017	9.818273	0.359764	0.260715	-0.003687	0.001543	-0.003823
00874	12192067	9.814440	0.356567	0.233846	-0.004760	0.000605	0.004410
00875	12192117	9.821486	0.362209	0.237745	-0.005323	0.003006	-0.000254
00876	12192167	9.813337	0.359032	0.252463	-0.005334	-0.003096	-0.000731
00877	12192217	9.811697	0.349419	0.229122	-0.001886	0.002261	-0.001449
00878	12192267	9.790572	0.361136	0.233313	-0.004596	0.001247	0.000474
00879	12192317	9.795221	0.364375	0.245067	-0.000743	0.003663	-0.002087
00880	12192367	9.799935	0.353855	0.235466	-0.005317	0.002847	0.000870
00881	12192417	9.800572	0.372145	0.250098	-0.002106	0.003584	0.000608
00882	12192467	9.802342	0.374219	0.228087	-0.003765	0.005160	-0.003030
00883	12192517	9.803149	0.359824	0.241644	-0.000530	0.000953	-0.002198
00884	12192567	9.829741	0.365726	0.244313	-0.001531	0.000197	-0.000214
00885	12192617	9.817200	0.357563	0.246840	-0.005500	0.001288	-0.001802
00886	12192667	9.819108	0.347533	0.266673	-0.003433	0.000744	-0.001776
00887	12192717	9.809319	0.345492	0.235564	-0.004771	0.000428	-0.002411
00888	12192767	9.806167	0.356568	0.261960	-0.003850	0.001066	0.000633
00889	12192817	9.799619	0.343276	0.229667	-0.003961	0.001319	0.000215
00890	12192867	9.799939	0.362373	0.256222	-0.004837	-0.000576	-0.003573
00891	12192917	9.796438	0.341574	0.247881	-0.003976	0.001936	-0.000197
00892	12192967	9.806740	0.355309	0.249519	-0.002414	0.001661	-0.004438
00893	12193017	9.830015	0.361707	0.246915	-0.004978	-0.001156	-0.001720
00894	12193067	9.810028	0.377549	0.249771	-0.002509	0.001827	-0.001709
00895	12193117	9.823701	0.349684	0.251352	-0.005598	0.001482	-0.000676
00896	12193167	9.823175	0.368729	0.259502	-0.006547	0.001276	-0.000197
00897	12193217	9.801094	0.371306	0.244025	-0.007278	0.001065	-0.000674
00898	12193267	9.806790	0.349620	0.251435	-0.005266	0.001268	0.001568
00899	12193317	9.805529	0.361587	0.238707	-0.004028	0.000249	-0.002611
00900	12193367	9.796050	0.354885	0.244069	-0.007909	-0.000333	-0.001543
00901	12193417	9.803138	0.342981	0.239993	-0.002384	0.002925	-0.002250
00902	12193467	9.799294	0.348938	0.232306	-0.008307	0.001980	-0.002970
00903	12193517	9.809377	0.360725	0.233829	-0.006294	0.005442	0.000021
00904	12193567	9.835846	0.354260	0.242133	-0.001397	-0.000025	-0.001334
00905	12193617	9.826973	0.360383	0.240133	-0.004425	0.002693	-0.002150
00906	12193667	9.826852	0.342272	0.258089	-0.003706	0.003158	-0.001922
00907	12193717	9.802401	0.364431	0.238732	-0.003853	0.000201	0.003704
00908	12193767	9.820048	0.365363	0.233046	-0.003951	-0.002266	-0.002018
00909	12193817	9.807483	0.352421	0.249682	-0.005943	-0.000880	-0.001969
00910	12193867	9.817108	0.334308	0.232062	-0.004326	0.003467	-0.004640
00911	12193917	9.803378	0.343913	0.238332	-0.003290	0.003429	0.000130
00912	12193967	9.800000	0.343835	0.245455	-0.003441	-0.000225	-0.002932
00913	12194017	9.790329	0.353209	0.249577	-0.006292	0.000720	-0.005388
00914	12194067	9.802073	0.364570	0.253109	-0.003764	0.000966	-0.001290
00915	12194117	9.832134	0.345705	0.243141	-0.005112	-0.000032	-0.002389
00916	12194167	9.820498	0.379144	0.248074	-0.003099	0.002203	-0.001674
00917	12194217	9.826670	0.358494	0.254221	-0.005510	0.001805	-0.001671
00918	12194267	9.835567	0.355322	0.247661	-0.003371	0.000878	-0.000752
00919	12194317	9.812246	0.367681	0.257721	-0.007138	0.004813	0.000371
00920	12194367	9.798396	0.354382	0.251965	-0.002007	0.002026	-0.002283
00921	12194417	9.804810	0.355056	0.253349	-0.006219	0.000992	0.000606
00922	12194467	9.805585	0.352597	0.248577	-0.007319	0.001290	-0.001217
00923	12194517	9.796901	0.373189	0.263254	-0.004732	0.002269	-0.003105
00924	12194567	9.791234	0.360535	0.242615	-0.002023	0.000937	0.001750
00925	12194617	9.801620	0.363517	0.250922	-0.003472	-0.001427	-0.004926
00926	12194667	9.825850	0.352975	0.244213	-0.005401	0.004126	-0.004540
00927	12194717	9.825127	0.350445	0.250647	-0.004531	0.002015	-0.002116
00928	12194767	9.799443	0.364733	0.255537	-0.005574	0.000707	-0.002092
00929	12194817	9.805905	0.390828	0.273755	-0.003833	0.001386	-0.000041
00930	12194867	9.803965	0.348549	0.249062	-0.002899	0.002045	-0.000549
00931	12194917	9.802875	0.350216	0.229197	-0.005925	0.000572	-0.002602
00932	12194967	9.804338	0.360379	0.240844	-0.006179	0.000030	0.004352
00933	12195017	9.781545	0.358976	0.234057	-0.003433	0.000550	-0.003635
00934	12195067	9.807356	0.345238	0.246838	-0.003435	-0.000188	0.000589
00935	12195117	9.797788	0.364929	0.252197	-0.003933	0.001742	0.001726
00936	12195167	9.790017	0.361440	0.245316	-0.002844	0.004504	0.000104
00937	12195217	9.826634	0.356916	0.263587	-0.008540	0.002298	-0.002332
00938	12195267	9.814025	0.364627	0.245942	-0.003422	0.004485	-0.002045
00939	12195317	9.816478	0.356971	0.249792	-0.005335	0.004460	-0.000245
00940	12195367	9.806177	0.349476	0.235827	-0.003099	0.001298	-0.001547
00941	12195417	9.824091	0.365370	0.233869	-0.002943	0.002529	-0.000133
00942	12195467	9.795301	0.374841	0.249417	-0.000426	-0.003167	0.002364
00943	12195517	9.813174	0.355083	0.248046	-0.005026	0.001394	-0.001577
00944	12195567	9.793730	0.372486	0.238566	-0.004727	0.002404	-0.000190
00945	12195617	9.799818	0.362613	0.236919	-0.005408	0.003754	0.000616
00946	12195667	9.816675	0.354669	0.260959	-0.006862	0.001008	-0.000357
00947	12195717	9.800412	0.359019	0.224125	-0.006545	-0.000950	0.000983
00948	12195767	9.810698	0.351268	0.233210	-0.003137	0.001394	-0.002641
00949	12195817	9.827946	0.355615	0.246531	-0.003514	-0.000104	-0.005081
00950	12195867	9.820093	0.350489	0.255710	-0.002678	0.001179	-0.000013
00951	12195917	9.814795	0.355707	0.254732	-0.002708	0.001247	0.000881
00952	12195967	9.816799	0.343484	0.263112	-0.001710	0.000808	-0.000817
00953	12196017	9.807727	0.355540	0.242796	-0.004634	0.001241	-0.001930
00954	12196067	9.805940	0.347977	0.238098	-0.007758	0.004090	-0.001456
00955	12196117	9.796900	0.364360	0.241936	-0.004498	0.004347	0.001484
00956	12196167	9.767900	0.368700	0.225488	-0.003679	0.001187	-0.005037
00957	12196217	9.790899	0.354251	0.232064	-0.000321	-0.000290	0.001552
00958	12196267	9.810040	0.356366	0.252121	-0.007124	0.001166	-0.000704
00959	12196317	9.803024	0.350077	0.243395	-0.005871	0.004058	-0.002585
00960	12196367	9.828178	0.354523	0.249403	-0.002182	0.001801	-0.000624
00961	12196417	9.826427	0.344020	0.246090	-0.006426	0.002701	0.001833
00962	12196467	9.831878	0.362474	0.251268	-0.007860	-0.000487	0.003707
00963	12196517	9.799659	0.374929	0.236795	-0.006375	-0.000043	0.001564
00964	12196567	9.823978	0.358536	0.226602	-0.006463	-0.002433	0.001612
00965	12196617	9.792299	0.355019	0.235234	0.000796	0.002400	-0.002767
00966	12196667	9.816651	0.349114	0.236434	-0.004140	-0.000266	0.000178
00967	12196717	9.811141	0.355214	0.229549	-0.002759	-0.003239	0.002434
00968	12196767	9.806171	0.380301	0.251308	-0.004014	0.005127	-0.001045
00969	12196817	9.797510	0.365904	0.256807	-0.004141	0.004058	-0.000314
00970	12196867	9.824080	0.363683	0.239314	-0.005642	-0.000490	-0.002354
00971	12196917	9.834526	0.355901	0.260395	-0.002588	0.001209	-0.002676
00972	12196967	9.800675	0.375843	0.225333	-0.003148	0.002114	0.002078
00973	12197017	9.799983	0.369361	0.234543	-0.004271	0.004087	-0.000664
00974	12197067	9.796264	0.353870	0.251528	-0.005978	0.001575	0.000288
00975	12197117	9.818769	0.354191	0.231237	-0.002836	0.001147	-0.000363
00976	12197167	9.797545	0.348682	0.247163	-0.002217	0.000803	-0.000235
00977	12197217	9.802643	0.366015	0.236374	-0.002847	0.002466	-0.001159
00978	12197267	9.811252	0.356457	0.248499	-0.005713	0.000060	-0.000237
00979	12197317	9.807954	0.351613	0.252904	-0.003158	0.003172	-0.002114
00980	12197367	9.820501	0.355977	0.254930	-0.007042	0.000686	0.000892
00981	12197417	9.819594	0.355128	0.249753	-0.006118	0.004762	-0.001107
00982	12197467	9.812768	0.365678	0.254290	-0.001948	0.002349	-0.002573
00983	12197517	9.807830	0.350893	0.235302	-0.003692	-0.000355	-0.000784
00984	12197567	9.805194	0.369335	0.239959	-0.004748	0.001754	-0.001156
00985	12197617	9.794468	0.371666	0.235923	-0.005879	0.001119	-0.002857
00986	12197667	9.811290	0.362666	0.230463	-0.006100	-0.001273	-0.002932
00987	12197717	9.793588	0.365950	0.235861	-0.002150	-0.000621	-0.003353
00988	12197767	9.810283	0.378474	0.245003	-0.008953	0.002024	-0.006722
00989	12197817	9.799108	0.381474	0.235405	-0.003994	0.002086	-0.002822
00990	12197867	9.801808	0.372326	0.240369	-0.003957	-0.002106	-0.001498
00991	12197917	9.793755	0.356373	0.227800	-0.004606	0.003336	-0.002205
00992	12197967	9.820051	0.346410	0.232913	-0.006361	0.001111	-0.002504
00993	12198017	9.808929	0.353121	0.245954	-0.006611	0.003210	-0.001817
00994	12198067	9.802442	0.357434	0.246281	-0.007045	-0.001714	-0.003828
00995	12198117	9.813930	0.339658	0.234398	-0.004500	0.002016	-0.002696
00996	12198167	9.817145	0.364475	0.242466	-0.002658	0.000305	-0.002067
00997	12198217	9.797458	0.359519	0.238768	-0.003732	0.001162	-0.000970
00998	12198267	9.794733	0.358064	0.259174	-0.002743	0.003011	-0.004136
00999	12198317	9.808072	0.346492	0.244254	-0.003327	0.002428	-0.000676
01000	12198367	9.807547	0.356434	0.231254	-0.002343	-0.000463	-0.001912
01001	12198417	9.827316	0.350645	0.242468	-0.001601	0.002387	-0.001710
01002	12198467	9.818325	0.353547	0.227162	-0.001552	-0.000092	-0.000667
01003	12198517	9.820804	0.379076	0.237158	-0.003408	-0.000291	-0.002418
01004	12198567	9.824630	0.344500	0.266218	-0.004668	0.002270	-0.001926
01005	12198617	9.794707	0.363007	0.254367	-0.003129	0.001468	0.000246
01006	12198667	9.811573	0.355463	0.237045	-0.005072	0.001003	-0.002249
01007	12198717	9.797265	0.354213	0.243126	-0.003669	0.003098	-0.001600
01008	12198767	9.808510	0.348643	0.245447	-0.003233	0.001393	-0.001453
01009	12198817	9.777500	0.361107	0.228560	-0.003593	0.001713	-0.001509
01010	12198867	9.816254	0.355858	0.249872	-0.004116	-0.001045	-0.001978
01011	12198917	9.817782	0.350802	0.243433	-0.001413	-0.000905	-0.005571
01012	12198967	9.816897	0.364385	0.243748	-0.003182	0.002078	0.000761
01013	12199017	9.813508	0.367428	0.245879	-0.005812	0.001056	-0.001576
01014	12199067	9.816883	0.361439	0.252064	-0.001579	0.000651	-0.000849
01015	12199117	9.804847	0.369074	0.256933	-0.004244	0.000020	-0.002099
01016	12199167	9.814473	0.358183	0.262876	-0.004670	0.000434	-0.000175
01017	12199217	9.784478	0.368765	0.240213	-0.006805	-0.000830	-0.000233
01018	12199267	9.796517	0.370258	0.253122	-0.003573	-0.000068	-0.002579
01019	12199317	9.815706	0.357256	0.256956	-0.005732	0.001513	-0.000966
01020	12199367	9.818439	0.351103	0.252330	-0.005628	0.001121	-0.003497
01021	12199417	9.811023	0.336017	0.249085	-0.006560	0.002760	0.000457
01022	12199467	9.841178	0.343758	0.249332	-0.004276	0.001957	-0.002216
01023	12199517	9.839721	0.344668	0.252221	-0.004584	0.002759	0.000063
01024	12199567	9.830943	0.331757	0.233347	-0.002795	0.002822	-0.001865
01025	12199617	9.804135	0.355101	0.246367	-0.004019	-0.001836	0.002699
01026	12199667	9.823622	0.351414	0.260406	-0.006407	-0.001210	0.000756
01027	12199717	9.800495	0.362410	0.242082	-0.002901	-0.000151	-0.002161
01028	12199767	9.817149	0.342856	0.246812	-0.003239	0.001518	-0.002123
01029	12199817	9.797123	0.360772	0.252454	-0.003652	0.002548	-0.002981
01030	12199867	9.824783	0.354309	0.259055	-0.004949	0.001103	-0.000875
01031	12199917	9.786662	0.344862	0.243105	-0.003732	-0.000078	-0.002960
01032	12199967	9.830890	0.350355	0.243449	-0.003940	0.003630	-0.002653
01033	12200017	9.799615	0.363373	0.266997	-0.003006	-0.001644	-0.000634
01034	12200067	9.813986	0.353811	0.235069	-0.003516	0.000384	-0.000237
01035	12200117	9.809074	0.359434	0.247563	-0.005939	-0.001556	0.003702
01036	12200167	9.820320	0.364960	0.228518	-0.003553	-0.000687	-0.001556
01037	12200217	9.807483	0.350426	0.254229	-0.007214	-0.000270	-0.002887
01038	12200267	9.817570	0.346650	0.247626	-0.003083	0.004774	-0.003580
01039	12200317	9.819733	0.338164	0.222116	-0.001774	0.001064	0.001528
01040	12200367	9.801807	0.355796	0.237127	-0.005425	0.003125	-0.000534
01041	12200417	9.798477	0.349657	0.247865	-0.001595	0.001188	-0.000555
01042	12200467	9.805207	0.364506	0.245723	-0.004720	0.000876	-0.001482
01043	12200517	9.801542	0.353553	0.245944	-0.008585	0.000612	-0.003009
01044	12200567	9.812009	0.351682	0.250882	-0.007415	0.000182	-0.001638
01045	12200617	9.817019	0.373045	0.244652	-0.005928	-0.000540	-0.004177
01046	12200667	9.824792	0.357026	0.253991	-0.000089	0.002118	-0.002352
01047	12200717	9.829332	0.358660	0.246363	-0.003753	0.002532	-0.004680
01048	12200767	9.815739	0.359379	0.248235	-0.001686	0.000062	0.000653
01049	12200817	9.818504	0.340706	0.262314	-0.002900	-0.002292	-0.002689
01050	12200867	9.809656	0.360594	0.228400	-0.005031	0.001542	-0.003208
01051	12200917	9.801137	0.348321	0.244241	-0.004946	0.000165	0.000857
01052	12200967	9.808266	0.355931	0.230765	-0.003219	0.000358	0.001816
01053	12201017	9.798835	0.359669	0.247617	-0.005359	0.000928	-0.002566
01054	12201067	9.798885	0.355652	0.247408	-0.003213	0.000802	-0.002351
01055	12201117	9.822761	0.359005	0.230008	-0.003970	0.000533	-0.000876
01056	12201167	9.818429	0.349328	0.258036	-0.004333	-0.000347	-0.002964
01057	12201217	9.829878	0.348582	0.255868	-0.002799	0.001908	-0.002570
01058	12201267	9.812762	0.347064	0.253326	-0.002564	0.000032	-0.006877
01059	12201317	9.813650	0.355269	0.248684	-0.003766	-0.000913	0.000208
01060	12201367	9.809394	0.325517	0.225481	-0.001657	-0.001976	-0.002081
01061	12201417	9.806694	0.363398	0.239844	-0.002020	-0.000593	-0.001368
01062	12201467	9.799496	0.365451	0.244728	-0.004930	0.001255	-0.003397
01063	12201517	9.805408	0.348462	0.246900	-0.005828	0.002060	0.003080
01064	12201567	9.821259	0.346871	0.228059	-0.000107	-0.000104	0.001450
01065	12201617	9.828614	0.354579	0.217755	-0.005752	0.000082	-0.002830
01066	12201667	9.807540	0.346096	0.253521	-0.005636	0.000763	-0.000163
01067	12201717	9.824858	0.338465	0.241237	-0.008150	0.000039	-0.001445
01068	12201767	9.805429	0.368853	0.240436	0.000866	0.001230	-0.002041
01069	12201817	9.794783	0.359998	0.247690	-0.004897	0.002881	0.000903
01070	12201867	9.809373	0.342902	0.233453	-0.005387	0.002830	-0.001053
01071	12201917	9.809336	0.370009	0.261361	-0.001662	-0.002787	-0.001027
01072	12201967	9.795193	0.371720	0.234607	-0.005019	-0.001909	-0.003126
01073	12202017	9.805705	0.374513	0.222612	-0.006676	0.000200	0.001184
01074	12202067	9.813683	0.353917	0.246148	-0.007925	0.002106	-0.001465
01075	12202117	9.809499	0.348877	0.239152	-0.003722	-0.001165	0.001488
01076	12202167	9.817401	0.359617	0.248791	-0.005966	0.002051	-0.000701
01077	12202217	9.782615	0.363498	0.243815	-0.005555	-0.000075	-0.002570
01078	12202267	9.814295	0.351055	0.229109	-0.004566	0.002463	0.001573
01079	12202317	9.812252	0.353645	0.246644	-0.002327	0.003278	-0.000577
01080	12202367	9.812858	0.344424	0.244977	-0.002628	0.001560	-0.000107
01081	12202417	9.837099	0.349906	0.241392	-0.002959	-0.000686	-0.006174
01082	12202467	9.806179	0.362034	0.247794	-0.005699	-0.001433	-0.000018
01083	12202517	9.816304	0.372204	0.246112	-0.005984	0.000696	0.000316
01084	12202567	9.800190	0.368467	0.241853	-0.005294	0.000930	-0.000612
01085	12202617	9.812941	0.368287	0.260132	-0.002959	-0.001958	0.001227
01086	12202667	9.811554	0.355120	0.240196	-0.007261	0.003774	0.001938
01087	12202717	9.800282	0.343778	0.237790	-0.004849	0.002562	0.004299
01088	12202767	9.806501	0.349363	0.260077	-0.004911	0.000937	-0.001227
01089	12202817	9.794829	0.345442	0.269420	-0.003753	-0.000134	0.001047
01090	12202867	9.811742	0.359394	0.240636	-0.004587	0.002009	-0.000062
01091	12202917	9.812836	0.370529	0.234103	-0.003424	0.000215	-0.003571
01092	12202967	9.817288	0.349134	0.250191	-0.003556	0.001543	-0.001065
01093	12203017	9.830395	0.350607	0.246241	-0.005285	0.000279	-0.003947
01094	12203067	9.809747	0.362047	0.249900	-0.005352	-0.000168	-0.000393
01095	12203117	9.797755	0.365166	0.256995	-0.002492	0.000368	-0.001297
01096	12203167	9.798481	0.330447	0.247393	-0.007246	0.000961	-0.000894
01097	12203217	9.794106	0.356020	0.248662	-0.003928	0.002278	-0.001828
01098	12203267	9.792461	0.356980	0.243136	-0.003421	0.002351	-0.001408
01099	12203317	9.794887	0.354003	0.243040	-0.002251	-0.001343	-0.001656
01100	12203367	9.821438	0.344314	0.243951	-0.004705	0.002491	-0.001986
01101	12203417	9.809693	0.362662	0.257238	-0.004426	0.005177	0.000434
01102	12203467	9.819523	0.361788	0.247719	-0.004983	0.000065	-0.001165
01103	12203517	9.810545	0.375016	0.248680	-0.005534	-0.002892	-0.003292
01104	12203567	9.813089	0.357634	0.256654	-0.004795	0.001092	-0.003948
01105	12203617	9.809667	0.368704	0.248834	-0.007124	0.003550	0.001203
01106	12203667	9.827460	0.359122	0.241813	-0.005132	0.002903	-0.001533
01107	12203717	9.807704	0.359121	0.239594	-0.003963	-0.000825	-0.001364
01108	12203767	9.810940	0.357152	0.221015	-0.005434	0.002280	-0.001854
01109	12203817	9.796624	0.364379	0.248606	-0.005591	0.001983	-0.004869
01110	12203867	9.790060	0.362194	0.236585	-0.002962	0.000273	0.003093
01111	12203917	9.788584	0.356569	0.256037	-0.004515	0.000457	-0.002251
01112	12203967	9.805507	0.363387	0.239292	-0.001467	-0.003910	-0.000780
01113	12204017	9.831975	0.369663	0.259048	-0.003145	0.003670	-0.003654
01114	12204067	9.821563	0.354813	0.240009	-0.003984	-0.001081	-0.000338
01115	12204117	9.825242	0.357967	0.255111	-0.005247	0.000416	-0.000422
01116	12204167	9.814461	0.381900	0.216792	-0.004672	-0.000675	-0.001364
01117	12204217	9.805817	0.361308	0.231469	-0.002993	-0.001866	0.000936
01118	12204267	9.791143	0.362979	0.252020	-0.005770	0.000960	0.001152
01119	12204317	9.822783	0.355152	0.234975	-0.004181	-0.000956	-0.000852
01120	12204367	9.799240	0.364067	0.249367	-0.006161	0.002146	0.001222
01121	12204417	9.783198	0.370703	0.250877	-0.001050	0.002527	0.001471
01122	12204467	9.809148	0.348354	0.220016	0.000193	0.001121	-0.003412
01123	12204517	9.818195	0.363017	0.228357	-0.000905	-0.000283	-0.000348
01124	12204567	9.795341	0.377561	0.236898	-0.008864	0.003706	-0.001966
01125	12204617	9.806375	0.351632	0.237082	-0.006991	0.000963	-0.001763
01126	12204667	9.791774	0.364053	0.264183	-0.007133	0.000381	-0.002115
01127	12204717	9.788531	0.369902	0.237230	-0.002943	0.004420	-0.003002
01128	12204767	9.822448	0.358156	0.243870	-0.006359	-0.000097	-0.003404
01129	12204817	9.799297	0.348195	0.234622	-0.004406	-0.002022	-0.001109
01130	12204867	9.807627	0.353567	0.262438	-0.003646	0.001539	-0.000776
01131	12204917	9.822330	0.361298	0.219030	-0.002316	0.002885	-0.000452
01132	12204967	9.821181	0.351586	0.231535	-0.001956	0.003637	-0.000675
01133	12205017	9.788165	0.379246	0.239013	-0.004189	-0.000335	0.002169
01134	12205067	9.811928	0.355661	0.255919	-0.002012	-0.000758	-0.001564
01135	12205117	9.817268	0.362718	0.265315	-0.001083	0.003192	-0.003150
01136	12205167	9.821833	0.355842	0.233804	-0.006383	0.000040	-0.000264
01137	12205217	9.802760	0.360583	0.264885	-0.006825	0.000972	0.001058
01138	12205267	9.819336	0.356722	0.250385	-0.003943	0.000860	0.000058
01139	12205317	9.794062	0.357866	0.252193	-0.003412	0.001027	-0.000615
01140	12205367	9.783905	0.352778	0.250067	-0.000894	0.000460	-0.001072
01141	12205417	9.798411	0.343510	0.233768	0.000704	0.002295	-0.001905
01142	12205467	9.810865	0.351273	0.244962	-0.001639	0.001613	-0.000652
01143	12205517	9.800603	0.356808	0.236984	-0.001653	-0.001366	-0.004190
01144	12205567	9.796941	0.376416	0.250036	-0.003986	0.001018	-0.002215
01145	12205617	9.822502	0.349671	0.253526	-0.003595	0.003993	-0.000218
01146	12205667	9.808063	0.362857	0.250670	-0.002176	-0.000760	-0.002775
01147	12205717	9.805655	0.354443	0.233399	-0.004365	-0.002248	0.000840
01148	12205767	9.811612	0.345701	0.251221	-0.005434	0.002448	0.000422
01149	12205817	9.821527	0.358662	0.238203	-0.002417	0.003012	-0.000739
01150	12205867	9.814581	0.358490	0.244913	-0.005663	0.000275	-0.002669
01151	12205917	9.799696	0.358808	0.225465	-0.007708	0.006630	-0.002240
01152	12205967	9.805398	0.348585	0.247773	-0.007641	-0.000788	-0.001287
01153	12206017	9.815692	0.337678	0.222905	-0.002521	0.002306	0.000029
01154	12206067	9.808307	0.366149	0.243224	-0.001516	-0.000063	0.000848
01155	12206117	9.823964	0.348004	0.252024	-0.002679	-0.000897	-0.000922
01156	12206167	9.831362	0.352364	0.239792	-0.006609	0.001839	-0.002560
01157	12206217	9.790460	0.351514	0.231820	-0.004788	-0.001132	-0.002514
01158	12206267	9.818368	0.373730	0.256670	-0.002960	0.003041	-0.000674
01159	12206317	9.809783	0.344229	0.240659	-0.003562	0.002833	-0.000831
01160	12206367	9.814585	0.347790	0.227484	-0.003201	0.002649	0.001407
01161	12206417	9.809795	0.355693	0.254548	-0.002541	0.001688	-0.003054
01162	12206467	9.816664	0.347400	0.240044	-0.005224	-0.001426	-0.001556
01163	12206517	9.828888	0.358506	0.241781	-0.002849	0.002358	-0.003402
01164	12206567	9.795927	0.362638	0.249610	-0.004547	0.002820	-0.000827
01165	12206617	9.814942	0.370132	0.239856	-0.002988	0.000840	-0.001328
01166	12206667	9.786407	0.370922	0.271515	-0.002339	0.004925	0.000875
01167	12206717	9.811478	0.360172	0.242949	-0.001176	-0.001197	-0.003006
01168	12206767	9.810987	0.362002	0.241579	-0.002410	0.000817	-0.000747
01169	12206817	9.786114	0.381703	0.257042	-0.005503	0.003373	-0.003608
01170	12206867	9.805597	0.357563	0.236638	-0.001851	0.002214	-0.003211
01171	12206917	9.817165	0.360612	0.246327	-0.005000	0.000808	-0.001065
01172	12206967	9.802418	0.348354	0.229656	-0.003953	0.002956	-0.000992
01173	12207017	9.812023	0.349446	0.253309	-0.002447	0.002148	0.000188
01174	12207067	9.799774	0.371202	0.264825	-0.001433	-0.000940	-0.000536
01175	12207117	9.810500	0.352344	0.263157	-0.003483	0.000517	0.000984
01176	12207167	9.796498	0.374014	0.249060	-0.006445	0.000204	0.001502
01177	12207217	9.804528	0.362027	0.246386	-0.002952	0.001221	-0.006095
01178	12207267	9.806042	0.356631	0.243287	-0.004785	0.000974	-0.000452
01179	12207317	9.805871	0.350255	0.245724	-0.006486	0.002363	-0.000314
01180	12207367	9.811007	0.355171	0.251450	-0.006787	0.003909	0.001168
01181	12207417	9.811390	0.361615	0.253614	-0.006052	0.002660	-0.002076
01182	12207467	9.822336	0.341773	0.257143	-0.004185	0.001239	-0.002411
01183	12207517	9.793630	0.377641	0.244787	-0.002857	0.001747	-0.001094
01184	12207567	9.803960	0.353726	0.239719	-0.002658	0.001361	-0.002925
01185	12207617	9.820464	0.351811	0.231966	-0.002056	0.001895	0.000758
01186	12207667	9.814966	0.338185	0.262141	-0.001992	0.000766	0.000019
01187	12207717	9.802779	0.348183	0.248025	-0.001523	-0.002801	0.003333
01188	12207767	9.814033	0.358302	0.256151	-0.002091	-0.000371	-0.001685
01189	12207817	9.808615	0.357630	0.248641	-0.005861	0.003826	-0.000791
01190	12207867	9.811547	0.366104	0.258518	-0.002770	0.000679	-0.004785
01191	12207917	9.823457	0.378700	0.231942	-0.003872	0.001567	-0.000104
01192	12207967	9.819655	0.376401	0.236000	-0.000004	0.000640	0.000045
01193	12208017	9.797455	0.366732	0.263374	-0.005978	0.005566	-0.000583
01194	12208067	9.817202	0.338085	0.247766	-0.004230	0.001396	-0.003432
01195	12208117	9.840402	0.350701	0.244534	-0.002217	0.000696	-0.000593
01196	12208167	9.806055	0.356698	0.241135	-0.006407	0.001717	-0.001088
01197	12208217	9.794286	0.341112	0.249132	-0.008076	0.001880	-0.001594
01198	12208267	9.807428	0.335845	0.253377	-0.004125	0.004832	0.001009
01199	12208317	9.818231	0.368386	0.251877	-0.005762	0.001566	-0.002823
01200	12208367	9.801538	0.353515	0.246712	-0.004780	0.003976	-0.000534
01201	12208417	9.811231	0.357336	0.251166	-0.005102	0.002067	0.000451
01202	12208467	9.821028	0.340374	0.240556	-0.002938	0.000837	-0.004691
01203	12208517	9.825150	0.347471	0.252447	-0.002077	0.006836	0.001459
01204	12208567	9.831320	0.354424	0.242000	-0.001545	0.003740	-0.001444
01205	12208617	9.817894	0.360261	0.245323	-0.002752	-0.000437	0.002129
01206	12208667	9.797118	0.363144	0.248898	-0.000006	0.003735	-0.000741
01207	12208717	9.799941	0.371506	0.236310	-0.003180	-0.000323	-0.002132
01208	12208767	9.803036	0.366679	0.247081	-0.005155	-0.001221	0.002965
01209	12208817	9.799387	0.351294	0.251728	-0.003725	0.000896	-0.000618
01210	12208867	9.797460	0.353633	0.251503	0.000027	0.001413	-0.001646
01211	12208917	9.805714	0.348582	0.235086	-0.002594	0.000263	-0.002544
01212	12208967	9.797127	0.346905	0.239713	-0.003473	-0.000874	0.000876
01213	12209017	9.803494	0.367465	0.248831	-0.006564	0.001784	-0.000092
01214	12209067	9.808525	0.364142	0.250883	-0.001792	-0.000716	-0.000758
01215	12209117	9.819212	0.351918	0.241286	-0.001866	0.001729	-0.001869
01216	12209167	9.827979	0.356833	0.239129	-0.005151	0.001284	-0.002344
01217	12209217	9.829103	0.360348	0.242670	-0.005178	-0.000907	-0.001877
01218	12209267	9.821290	0.355176	0.245112	-0.005212	-0.000452	0.000852
01219	12209317	9.828358	0.346756	0.235747	-0.004254	0.000829	0.004444
01220	12209367	9.814935	0.351606	0.239813	-0.006031	-0.000115	0.000089
01221	12209417	9.804725	0.370867	0.235116	-0.004469	-0.001094	-0.003538
01222	12209467	9.786053	0.361417	0.231107	-0.001732	-0.000495	-0.001045
01223	12209517	9.822078	0.352420	0.238644	-0.003882	0.001830	-0.000002
01224	12209567	9.796392	0.349874	0.238201	-0.000551	-0.002799	-0.003342
01225	12209617	9.808111	0.339057	0.253073	-0.002816	-0.000706	-0.002491
01226	12209667	9.792684	0.357301	0.244981	-0.005486	-0.000369	-0.003502
01227	12209717	9.808818	0.366133	0.237562	-0.004470	0.003137	-0.002847
01228	12209767	9.812743	0.363847	0.263112	-0.002946	0.001518	-0.001705
01229	12209817	9.818456	0.352285	0.247766	-0.003272	0.000610	-0.000493
01230	12209867	9.804680	0.352424	0.240684	-0.008466	0.001232	0.000005
01231	12209917	9.816347	0.337828	0.233414	-0.005959	0.001594	-0.002631
01232	12209967	9.810732	0.353109	0.222612	-0.002828	-0.000548	-0.003256
01233	12210017	9.803636	0.366247	0.226735	-0.003517	0.001089	-0.002124
01234	12210067	9.798954	0.361237	0.225017	-0.006427	-0.001095	-0.003728
01235	12210117	9.814871	0.371626	0.249262	-0.005198	0.003164	0.000356
01236	12210167	9.807088	0.345441	0.251099	-0.004201	-0.002441	-0.000539
01237	12210217	9.803061	0.369987	0.235888	-0.003777	0.001904	0.003105
01238	12210267	9.805552	0.374713	0.247391	-0.002832	0.001742	-0.002543
01239	12210317	9.813960	0.351576	0.244165	-0.004286	0.000176	-0.000686
01240	12210367	9.826168	0.351552	0.234102	-0.004484	0.001693	0.002139
01241	12210417	9.811986	0.353115	0.252077	-0.003574	0.001021	-0.001229
01242	12210467	9.812260	0.356400	0.239657	-0.001730	0.001407	-0.001780
01243	12210517	9.815741	0.360757	0.245412	-0.001542	0.001810	0.000950
01244	12210567	9.814352	0.356167	0.247231	-0.004397	-0.001950	0.002925
01245	12210617	9.821241	0.344919	0.235460	-0.002246	-0.000798	-0.002364
01246	12210667	9.800488	0.364540	0.240194	-0.004786	0.000970	-0.001738
01247	12210717	9.792830	0.374043	0.227699	-0.003514	0.000285	-0.000171
01248	12210767	9.786248	0.358532	0.244132	-0.004131	0.001666	0.000222
01249	12210817	9.807748	0.347020	0.256807	-0.002588	0.004502	0.000101
01250	12210867	9.804564	0.359519	0.245882	-0.005638	0.000502	-0.001834
01251	12210917	9.815362	0.339902	0.233370	-0.002998	-0.000257	-0.002487
01252	12210967	9.834366	0.335817	0.249499	-0.004502	-0.003254	-0.001670
01253	12211017	9.801701	0.369333	0.265331	-0.006103	0.002372	0.000741
01254	12211067	9.818169	0.350236	0.259280	-0.006314	0.000685	-0.000583
01255	12211117	9.791623	0.366097	0.245519	-0.002608	0.001312	0.004122
01256	12211167	9.799738	0.354563	0.227956	-0.005496	0.001857	-0.003717
01257	12211217	9.801895	0.349602	0.234633	-0.001805	-0.000135	0.001100
01258	12211267	9.817130	0.349365	0.236744	-0.003529	0.002769	0.000608
01259	12211317	9.804451	0.333957	0.237768	-0.003981	0.000864	0.001109
01260	12211367	9.794376	0.357739	0.240467	-0.005174	0.002255	-0.000701
01261	12211417	9.816341	0.351587	0.243497	-0.005579	0.000635	-0.000456
01262	12211467	9.810813	0.366992	0.260321	-0.004752	0.003807	-0.004128
01263	12211517	9.808302	0.352996	0.231182	-0.003619	0.005277	-0.005017
01264	12211567	9.804091	0.369590	0.224597	-0.003947	-0.000535	-0.003352
01265	12211617	9.811791	0.350791	0.249441	-0.003207	-0.001780	-0.002527
01266	12211667	9.807488	0.360642	0.233506	-0.004856	0.003164	-0.001757
01267	12211717	9.818977	0.362570	0.258261	-0.006664	-0.001290	-0.001009
01268	12211767	9.793999	0.375794	0.226325	-0.003260	0.002289	-0.000417
01269	12211817	9.793899	0.374087	0.246244	-0.002931	0.001038	-0.000717
01270	12211867	9.808683	0.344714	0.225978	0.000948	-0.000352	-0.001793
01271	12211917	9.784333	0.370469	0.260149	-0.001515	0.000284	-0.004342
01272	12211967	9.815212	0.348526	0.239743	-0.003245	0.004037	0.000837
01273	12212017	9.810554	0.363808	0.230729	-0.004938	-0.001286	0.001005
01274	12212067	9.812994	0.351491	0.245617	-0.004118	0.000209	0.000789
01275	12212117	9.817261	0.352306	0.248001	-0.004130	0.001597	-0.000522
01276	12212167	9.801580	0.354128	0.237809	-0.003672	0.001087	-0.001741
01277	12212217	9.803749	0.368009	0.245222	-0.006554	0.002392	-0.000603
01278	12212267	9.818683	0.359305	0.234596	-0.004616	0.001752	0.001022
01279	12212317	9.806007	0.374728	0.250706	-0.003051	0.000380	-0.005337
01280	12212367	9.821854	0.349290	0.244082	-0.005081	-0.000970	-0.001235
01281	12212417	9.802506	0.367768	0.253919	-0.003186	0.003897	-0.004257
01282	12212467	9.788954	0.353239	0.240268	-0.004818	0.000972	-0.001868
01283	12212517	9.812977	0.340703	0.232450	0.000109	0.000257	0.003432
01284	12212567	9.814134	0.331988	0.255304	-0.005341	0.003348	-0.001693
01285	12212617	9.836487	0.336321	0.251870	-0.005475	0.005671	-0.002418
01286	12212667	9.825912	0.342017	0.256276	-0.003386	0.005419	0.000140
01287	12212717	9.813539	0.361178	0.254985	-0.003140	0.000416	-0.002775
01288	12212767	9.820492	0.353012	0.264313	-0.003655	0.001540	-0.001161
01289	12212817	9.826445	0.368295	0.232652	-0.006569	0.002648	-0.001758
01290	12212867	9.813440	0.369531	0.253258	-0.001929	0.000272	-0.003704
01291	12212917	9.805140	0.352707	0.242382	-0.008818	0.000996	-0.002529
01292	12212967	9.814262	0.365269	0.244423	-0.004587	0.000685	-0.000683
01293	12213017	9.800345	0.360678	0.232756	-0.004851	-0.000166	-0.003444
01294	12213067	9.784247	0.366651	0.243395	-0.004826	0.002228	-0.001859
01295	12213117	9.800642	0.358968	0.226814	-0.001436	0.002357	-0.000231
01296	12213167	9.803991	0.361526	0.218566	-0.002432	0.000533	0.001427
01297	12213217	9.807747	0.352461	0.245181	-0.000276	0.000826	-0.001844
01298	12213267	9.813410	0.371746	0.253819	-0.004339	0.002310	0.001600
01299	12213317	9.818793	0.378254	0.255296	-0.004446	0.003532	0.000004
01300	12213367	9.810497	0.356222	0.255159	-0.003616	-0.002017	-0.004320
01301	12213417	9.807650	0.360988	0.244326	-0.004570	-0.003095	-0.002080
01302	12213467	9.783882	0.355864	0.247677	-0.003637	-0.000875	0.000334
01303	12213517	9.811607	0.348240	0.245340	-0.002326	-0.002120	-0.002082
01304	12213567	9.806505	0.354488	0.249768	-0.001257	0.001616	-0.002100
01305	12213617	9.807115	0.361257	0.251806	-0.004233	-0.003504	-0.000193
01306	12213667	9.806346	0.347337	0.251442	-0.003217	0.000936	0.000787
01307	12213717	9.803891	0.357418	0.243111	-0.004466	0.001943	-0.002825
01308	12213767	9.804728	0.349824	0.238299	-0.002907	0.002592	0.001667
01309	12213817	9.810336	0.349437	0.256382	-0.002814	-0.001032	-0.003260
01310	12213867	9.820091	0.358632	0.239163	-0.006540	0.001778	-0.001572
01311	12213917	9.842373	0.361436	0.250959	-0.002129	-0.000976	0.001927
01312	12213967	9.815771	0.355294	0.252576	-0.001502	0.001153	-0.002168
01313	12214017	9.812229	0.358720	0.240149	-0.007010	0.000478	-0.001030
01314	12214067	9.808843	0.372956	0.219244	-0.005132	0.000903	0.000889
01315	12214117	9.807054	0.355177	0.236374	-0.002234	0.002015	-0.001578
01316	12214167	9.807653	0.367637	0.230281	-0.005106	-0.000099	-0.000843
01317	12214217	9.804255	0.360252	0.255641	-0.005940	0.005243	-0.001296
01318	12214267	9.817061	0.353644	0.239167	-0.005679	0.002727	-0.002848
01319	12214317	9.799353	0.360795	0.238248	-0.002009	-0.000051	-0.003831
01320	12214367	9.815536	0.362194	0.237196	-0.002214	0.000302	-0.003608
01321	12214417	9.816992	0.340691	0.237990	-0.005252	0.003874	0.001130
01322	12214467	9.813384	0.358602	0.246155	-0.002402	0.001635	0.001336
01323	12214517	9.817943	0.359552	0.239181	-0.003306	0.002871	0.000219
01324	12214567	9.818058	0.352856	0.232865	-0.006685	-0.000510	0.001524
01325	12214617	9.801548	0.371391	0.247281	-0.005357	-0.001497	-0.003606
01326	12214667	9.811455	0.358148	0.251174	-0.007473	0.000756	-0.003337
01327	12214717	9.817436	0.343140	0.238141	-0.004095	0.000309	0.000051
01328	12214767	9.808340	0.357529	0.255133	-0.005981	0.006500	-0.002827
01329	12214817	9.831879	0.342860	0.251481	-0.004644	-0.000443	0.000080
01330	12214867	9.801032	0.361763	0.234127	-0.004958	-0.001805	-0.000823
01331	12214917	9.823103	0.348971	0.234574	-0.006361	0.000165	-0.002028
01332	12214967	9.812650	0.361062	0.243481	-0.003444	-0.000037	-0.001493
01333	12215017	9.798061	0.360135	0.256029	-0.001810	0.000961	0.000244
01334	12215067	9.811725	0.357062	0.248282	-0.002822	0.000655	0.000434
01335	12215117	9.815487	0.338150	0.255246	-0.005285	0.001474	-0.002985
01336	12215167	9.795222	0.371971	0.228706	-0.004135	-0.001303	0.000557
01337	12215217	9.816522	0.348121	0.221411	-0.004257	-0.000531	0.000689
01338	12215267	9.828923	0.330005	0.255323	-0.005400	-0.001976	-0.000567
01339	12215317	9.803796	0.344581	0.245517	-0.001477	0.003579	-0.001889
01340	12215367	9.814074	0.335383	0.258004	-0.006074	-0.001626	0.001519
01341	12215417	9.821096	0.347449	0.253465	-0.005241	-0.000004	-0.000752
01342	12215467	9.822601	0.350297	0.235892	-0.007085	0.005230	0.002008
01343	12215517	9.795864	0.369115	0.246389	-0.004042	-0.000371	-0.000976
01344	12215567	9.825157	0.366562	0.251190	-0.006825	0.003742	-0.002554
01345	12215617	9.795269	0.376778	0.250260	-0.004077	0.001217	0.002750
01346	12215667	9.811678	0.363916	0.241478	-0.003292	-0.001909	-0.001053
01347	12215717	9.811553	0.351489	0.248291	-0.005378	0.000445	-0.002254
01348	12215767	9.813332	0.359755	0.251401	-0.006168	0.001208	-0.000642
01349	12215817	9.813396	0.355987	0.249255	-0.007361	0.001509	-0.000479
01350	12215867	9.818832	0.337945	0.253984	-0.002680	-0.000961	-0.001404
01351	12215917	9.819907	0.354499	0.239424	-0.006774	0.002297	0.001445
01352	12215967	9.814209	0.364144	0.255969	-0.003730	0.002386	0.002658
01353	12216017	9.811707	0.356310	0.252429	-0.004783	0.004333	0.002606
01354	12216067	9.793231	0.341140	0.227590	-0.006396	0.003331	-0.001848
01355	12216117	9.819880	0.354265	0.243730	-0.003654	0.001673	-0.000488
01356	12216167	9.804183	0.358227	0.232577	-0.006200	0.003470	0.000683
01357	12216217	9.803902	0.374680	0.244934	-0.002944	0.000260	-0.001426
01358	12216267	9.811297	0.359532	0.234634	-0.004867	0.000454	-0.001070
01359	12216317	9.791058	0.360383	0.233230	-0.003816	-0.001199	0.002255
01360	12216367	9.813061	0.363336	0.249696	-0.006223	0.002848	-0.002204
01361	12216417	9.815160	0.367186	0.248756	-0.002150	0.001401	-0.001810
01362	12216467	9.821420	0.349585	0.235847	-0.002439	0.003892	0.001856
01363	12216517	9.807315	0.351497	0.240187	-0.008614	0.001714	0.000072
01364	12216567	9.813857	0.356009	0.251429	-0.001693	0.002087	-0.003186
01365	12216617	9.822833	0.341047	0.254774	-0.001405	0.003524	0.000153
01366	12216667	9.805215	0.353264	0.268425	-0.003422	-0.000848	-0.002489
01367	12216717	9.804754	0.360846	0.250924	-0.006958	0.000704	-0.002180
01368	12216767	9.810735	0.359304	0.249442	-0.007601	-0.000083	-0.002410
01369	12216817	9.801188	0.360320	0.249929	-0.006156	-0.002248	-0.001364
01370	12216867	9.809687	0.350574	0.243987	-0.002653	0.003330	-0.001666
01371	12216917	9.795664	0.363155	0.252268	-0.003736	0.003152	-0.002882
01372	12216967	9.817739	0.348661	0.255767	-0.005583	0.003858	-0.002586
01373	12217017	9.825092	0.356873	0.243049	-0.007407	0.003123	-0.000088
01374	12217067	9.813251	0.369285	0.245861	-0.003879	0.001892	0.000960
01375	12217117	9.807892	0.364131	0.237540	-0.007270	0.000804	-0.000003
01376	12217167	9.796407	0.348338	0.239303	-0.008627	0.002164	0.000779
01377	12217217	9.789966	0.374884	0.225586	-0.005184	0.000154	-0.003470
01378	12217267	9.801659	0.363267	0.245189	-0.004889	0.000037	-0.001325
01379	12217317	9.797550	0.342021	0.221500	-0.003155	0.000804	-0.002192
01380	12217367	9.788246	0.363092	0.259092	-0.008016	-0.003020	0.000846
01381	12217417	9.801574	0.354137	0.239484	-0.006306	0.002460	-0.002559
01382	12217467	9.816620	0.347324	0.246157	-0.002326	0.003114	-0.001671
01383	12217517	9.797476	0.363938	0.265113	-0.004610	-0.000773	-0.004184
01384	12217567	9.819135	0.348975	0.259564	-0.003906	0.003837	0.002791
01385	12217617	9.816181	0.362756	0.246747	-0.004263	-0.000475	-0.001297
01386	12217667	9.806701	0.357341	0.251630	-0.003631	-0.000203	-0.002006
01387	12217717	9.798722	0.372106	0.239916	-0.002863	-0.000156	0.000110
01388	12217767	9.807966	0.357281	0.239221	-0.003745	0.002345	-0.002147
01389	12217817	9.809273	0.340692	0.254072	-0.004176	0.002017	0.000155
01390	12217867	9.833447	0.330377	0.254920	-0.001465	0.001895	-0.004150
01391	12217917	9.796267	0.355291	0.247614	-0.003767	0.000350	0.001687
01392	12217967	9.818223	0.349652	0.251513	-0.004423	-0.001836	-0.002875
01393	12218017	9.813712	0.351113	0.245882	-0.002173	0.000080	-0.003673
01394	12218067	9.825769	0.353895	0.255438	-0.002971	0.002263	-0.000264
01395	12218117	9.825650	0.345889	0.253008	-0.008282	0.002331	-0.000920
01396	12218167	9.814909	0.345935	0.255958	-0.002383	0.000881	-0.001261
01397	12218217	9.803208	0.371276	0.249054	-0.000366	0.001824	-0.001071
01398	12218267	9.821192	0.346330	0.239608	-0.005064	0.001315	-0.004490
01399	12218317	9.826751	0.336998	0.246045	-0.002229	-0.000080	-0.001147
01400	12218367	9.829472	0.347480	0.246341	-0.006074	0.001206	-0.001641
01401	12218417	9.798458	0.351421	0.247410	-0.005935	0.002657	-0.003935
01402	12218467	9.809269	0.349052	0.238232	-0.003059	0.001774	-0.002921
01403	12218517	9.817142	0.363019	0.246068	-0.004552	0.000423	-0.003535
01404	12218567	9.810135	0.353889	0.242313	-0.006332	0.001431	0.000766
01405	12218617	9.807029	0.359886	0.231582	-0.005184	0.001812	0.002432
01406	12218667	9.813034	0.348769	0.245233	0.000063	0.003084	-0.004432
01407	12218717	9.817660	0.353230	0.259293	-0.002116	0.001702	0.000695
01408	12218767	9.824855	0.354293	0.249258	-0.002911	0.004292	-0.002594
01409	12218817	9.801074	0.365195	0.259300	-0.007140	-0.000294	0.000763
01410	12218867	9.823518	0.331157	0.242099	-0.002465	0.004303	-0.002816
01411	12218917	9.802273	0.353162	0.243641	-0.004277	0.005044	-0.003511
01412	12218967	9.799925	0.335358	0.235584	-0.005485	-0.001362	-0.000720
01413	12219017	9.788932	0.359813	0.230828	-0.003017	-0.001487	-0.001562
01414	12219067	9.799837	0.357391	0.243803	-0.002288	0.002722	-0.004011
01415	12219117	9.792630	0.366841	0.235754	-0.005495	0.003351	-0.000153
01416	12219167	9.810994	0.364939	0.233621	-0.007010	0.001808	0.000965
01417	12219217	9.820857	0.375557	0.235082	-0.005023	0.001223	-0.001902
01418	12219267	9.821065	0.369577	0.252554	-0.000792	-0.000025	-0.001051
01419	12219317	9.824346	0.348582	0.265240	-0.002375	0.000398	-0.003096
01420	12219367	9.826411	0.345589	0.245086	-0.003222	0.000996	-0.002258
01421	12219417	9.789308	0.361198	0.244388	-0.002844	0.003361	-0.000863
01422	12219467	9.802682	0.343214	0.235559	-0.003909	-0.002430	0.001477
01423	12219517	9.818437	0.347052	0.262687	-0.002079	0.003573	0.000095
01424	12219567	9.809505	0.363664	0.246892	-0.002306	0.002303	-0.003307
01425	12219617	9.793330	0.344192	0.245233	-0.001193	-0.001613	-0.002849
01426	12219667	9.810879	0.351874	0.240360	-0.007016	0.001641	-0.001887
01427	12219717	9.810463	0.361169	0.251364	-0.003644	-0.002011	-0.002015
01428	12219767	9.827614	0.343668	0.246619	-0.002412	0.002627	-0.002314
01429	12219817	9.830670	0.352055	0.237467	-0.005669	0.003900	0.001420
01430	12219867	9.808519	0.361029	0.245228	-0.002491	0.002339	-0.001188
01431	12219917	9.811617	0.364986	0.223992	-0.001746	0.003221	-0.000681
01432	12219967	9.809488	0.368811	0.252692	-0.007158	0.002416	0.000487
01433	12220017	9.801875	0.355411	0.238867	-0.004122	0.002504	0.001154
01434	12220067	9.828357	0.344364	0.253827	-0.004202	0.000920	-0.000620
01435	12220117	9.807267	0.341418	0.242593	0.000679	-0.001869	-0.000361
01436	12220167	9.813876	0.342048	0.250346	-0.007284	0.002322	0.000197
01437	12220217	9.789484	0.361253	0.267803	-0.003478	-0.000745	-0.001301
01438	12220267	9.815888	0.335281	0.248850	-0.002222	0.001828	-0.001902
01439	12220317	9.810831	0.366862	0.230204	-0.002516	0.000139	-0.000853
01440	12220367	9.840092	0.344455	0.242768	-0.005423	0.002160	0.000095
01441	12220417	9.820854	0.341870	0.239007	-0.006644	0.002231	-0.001342
01442	12220467	9.807459	0.358759	0.254908	-0.004809	0.003044	0.000195
01443	12220517	9.806192	0.353403	0.238392	-0.003117	0.001840	-0.002317
01444	12220567	9.828581	0.342709	0.260275	-0.005900	0.002691	-0.004224
01445	12220617	9.808545	0.350925	0.248097	-0.002916	-0.001738	-0.003137
01446	12220667	9.815737	0.334128	0.235477	-0.005927	0.002660	-0.002626
01447	12220717	9.807178	0.351002	0.237603	-0.003576	0.002160	-0.001959
01448	12220767	9.810396	0.354379	0.250220	-0.006030	-0.002141	0.000395
01449	12220817	9.812476	0.358483	0.250550	-0.005474	0.000674	-0.000522
01450	12220867	9.804749	0.372953	0.239963	-0.005068	-0.001127	-0.000016
01451	12220917	9.806623	0.333995	0.245626	-0.007696	0.003318	0.001163
01452	12220967	9.808095	0.352890	0.239054	-0.003139	0.001547	-0.001064
01453	12221017	9.822315	0.354634	0.247125	-0.006227	-0.000021	-0.001518
01454	12221067	9.799582	0.364174	0.246332	-0.005104	0.004062	-0.002359
01455	12221117	9.805878	0.359782	0.238177	-0.001582	0.003834	-0.004518
01456	12221167	9.803274	0.369952	0.253430	-0.007284	0.000155	-0.000103
01457	12221217	9.820259	0.366754	0.247616	-0.003007	0.000290	-0.003482
01458	12221267	9.788229	0.360675	0.240275	-0.003510	0.000387	0.001850
01459	12221317	9.782289	0.375189	0.247057	-0.003436	-0.001002	0.000431
01460	12221367	9.803973	0.354587	0.248120	-0.008141	-0.000990	-0.000300
01461	12221417	9.815094	0.353765	0.261821	-0.005991	0.001960	0.001570
01462	12221467	9.798944	0.367687	0.225943	-0.002529	0.002465	-0.000938
01463	12221517	9.804663	0.359762	0.241420	-0.004471	-0.001190	-0.005402
01464	12221567	9.815882	0.362209	0.232762	-0.004416	-0.000008	0.004859
01465	12221617	9.807559	0.348573	0.257899	-0.006322	-0.001087	-0.001938
01466	12221667	9.796577	0.359626	0.238919	-0.000266	0.000701	-0.000081
01467	12221717	9.804817	0.363970	0.247766	-0.005942	0.004043	-0.005531
01468	12221767	9.795356	0.375737	0.251991	-0.006836	0.000490	0.001249
01469	12221817	9.797701	0.371255	0.227134	-0.004824	0.001196	-0.003178
01470	12221867	9.816577	0.344085	0.234705	-0.001399	0.001965	-0.003247
01471	12221917	9.803917	0.367245	0.232040	-0.005616	-0.002408	-0.003933
01472	12221967	9.801369	0.354181	0.246592	-0.006221	0.005044	-0.002737
01473	12222017	9.815553	0.369093	0.232807	-0.006064	0.002541	0.003148
01474	12222067	9.804692	0.355896	0.244564	-0.005054	0.001351	-0.002631
01475	12222117	9.821953	0.346085	0.246855	-0.005886	0.000342	-0.001290
01476	12222167	9.819462	0.351143	0.252384	-0.005263	0.002095	0.000352
01477	12222217	9.819162	0.361732	0.242871	-0.006240	0.001498	-0.000546
01478	12222267	9.826779	0.360103	0.246398	-0.003888	0.002088	-0.000709
01479	12222317	9.797473	0.363606	0.242444	-0.007265	0.001575	-0.002018
01480	12222367	9.787721	0.377661	0.250139	-0.006200	0.001172	-0.001825
01481	12222417	9.803987	0.344223	0.228132	-0.001948	0.003279	-0.003367
01482	12222467	9.794252	0.360504	0.229423	-0.001801	-0.002493	-0.002048
01483	12222517	9.798716	0.362320	0.235984	-0.002685	0.002497	-0.000292
01484	12222567	9.802060	0.355499	0.248373	-0.007486	-0.000657	-0.001162
01485	12222617	9.821694	0.352138	0.236811	-0.003757	0.001027	-0.000110
01486	12222667	9.801895	0.380885	0.261843	-0.004695	0.000366	0.000244
01487	12222717	9.822881	0.353430	0.235831	-0.004184	0.000045	-0.002580
01488	12222767	9.816282	0.356759	0.256246	-0.002413	-0.001244	-0.001246
01489	12222817	9.804227	0.351507	0.251255	-0.003516	0.000286	-0.002256
01490	12222867	9.814438	0.354231	0.250991	-0.005402	0.002349	-0.000802
01491	12222917	9.798280	0.375486	0.241210	-0.004444	-0.000437	0.001170
01492	12222967	9.808761	0.350387	0.253533	-0.006486	0.005167	-0.003766
01493	12223017	9.805270	0.348981	0.242628	-0.003316	0.000099	0.000371
01494	12223067	9.804730	0.345636	0.259736	-0.005082	0.003584	-0.000953
01495	12223117	9.800498	0.361323	0.256850	-0.006320	0.003107	-0.001051
01496	12223167	9.804942	0.360060	0.234415	-0.004681	-0.002254	0.000070
01497	12223217	9.811843	0.369298	0.255679	-0.004777	-0.002513	-0.002464
01498	12223267	9.795640	0.356457	0.244357	-0.007401	-0.000267	-0.000422
01499	12223317	9.815653	0.354995	0.245253	-0.001235	0.002069	-0.001167
01500	12223367	9.796178	0.364567	0.256380	-0.000896	0.001528	0.000306
01501	12223417	9.815831	0.364361	0.236361	-0.004005	-0.000234	0.000466
01502	12223467	9.793048	0.356289	0.240326	-0.005137	-0.000001	-0.001997
01503	12223517	9.799294	0.353448	0.237236	-0.005170	0.002331	0.000864
01504	12223567	9.810617	0.332011	0.259000	-0.005427	0.003158	-0.001724
01505	12223617	9.804344	0.362647	0.249085	-0.004537	-0.001700	-0.000183
01506	12223667	9.820346	0.352211	0.262842	-0.006677	-0.001898	-0.000242
01507	12223717	9.810949	0.348792	0.248594	-0.004315	0.000205	-0.002773
01508	12223767	9.833964	0.362999	0.234860	-0.002933	0.002102	-0.001003
01509	12223817	9.810658	0.373475	0.245222	-0.003335	0.000867	-0.000717
01510	12223867	9.812210	0.359324	0.255537	-0.009012	-0.000683	-0.000262
01511	12223917	9.801599	0.359743	0.237470	-0.006969	0.003487	-0.001749
01512	12223967	9.806546	0.360406	0.244355	-0.008928	0.001775	-0.000631
01513	12224017	9.828932	0.345570	0.235885	-0.005405	0.002579	-0.000767
01514	12224067	9.804285	0.353366	0.238198	-0.005106	0.003229	-0.000921
01515	12224117	9.788993	0.378789	0.234801	-0.007142	-0.000196	-0.000969
01516	12224167	9.811453	0.354732	0.231191	-0.000902	0.001788	0.000884
01517	12224217	9.809466	0.353302	0.248199	-0.004739	0.002553	-0.003078
01518	12224267	9.817873	0.349846	0.243119	-0.004483	0.001625	0.000281
01519	12224317	9.793534	0.375224	0.238245	-0.006906	0.003584	-0.000498
01520	12224367	9.807942	0.365103	0.241706	-0.004815	0.002173	0.000481
01521	12224417	9.798240	0.368594	0.261143	-0.002254	0.000924	-0.001040
01522	12224467	9.811485	0.355015	0.226348	-0.000475	0.001304	-0.000978
01523	12224517	9.800464	0.366365	0.253233	-0.002950	-0.000382	-0.001654
01524	12224567	9.812882	0.360162	0.259998	-0.003347	-0.000869	0.000172
01525	12224617	9.805396	0.356611	0.245605	-0.001866	0.003866	-0.001700
01526	12224667	9.794736	0.372489	0.242035	-0.003307	0.002575	-0.005128
01527	12224717	9.826943	0.351481	0.237955	-0.001636	0.001413	-0.002867
01528	12224767	9.798633	0.360851	0.251574	-0.005499	0.001349	-0.000550
01529	12224817	9.819041	0.343367	0.260194	-0.006323	0.004666	0.002964
01530	12224867	9.823090	0.358154	0.231078	-0.006374	0.001849	0.000610
01531	12224917	9.816505	0.363557	0.245235	-0.005684	0.000185	-0.000841
01532	12224967	9.806984	0.343974	0.244862	-0.004222	0.001764	0.001148
01533	12225017	9.816181	0.362957	0.260155	-0.004852	0.004063	-0.002876
01534	12225067	9.820186	0.361846	0.230881	-0.003574	0.001321	0.001273
01535	12225117	9.810276	0.363391	0.251058	-0.004240	0.002147	-0.000034
01536	12225167	9.802559	0.358295	0.239024	0.000604	-0.000447	-0.001569
01537	12225217	9.807323	0.353213	0.249120	-0.001197	-0.001125	-0.000957
01538	12225267	9.818519	0.340237	0.235567	-0.006197	-0.000954	-0.001393
01539	12225317	9.804610	0.365233	0.239826	-0.008439	0.002097	-0.004283
01540	12225367	9.820253	0.349435	0.245483	-0.005855	0.002370	-0.003491
01541	12225417	9.825163	0.348318	0.261983	-0.006875	0.002352	-0.004099
01542	12225467	9.820937	0.345970	0.256467	-0.006528	-0.000545	-0.002067
01543	12225517	9.803072	0.330820	0.249205	-0.005935	0.004084	-0.001078
01544	12225567	9.802327	0.349483	0.254689	-0.004650	0.000817	-0.000300
01545	12225617	9.800751	0.353148	0.232853	-0.007243	0.000931	-0.000577
01546	12225667	9.808871	0.367290	0.239202	-0.003531	-0.001098	0.000398
01547	12225717	9.826578	0.338571	0.245488	-0.002930	0.003202	0.000221
01548	12225767	9.803208	0.374718	0.254909	-0.000893	0.002330	-0.003536
01549	12225817	9.799649	0.360800	0.241391	-0.006970	0.005750	0.000281
01550	12225867	9.800760	0.349496	0.238904	-0.004794	0.003427	-0.001148
01551	12225917	9.791771	0.364377	0.236943	-0.004841	-0.000319	-0.001968
01552	12225967	9.821896	0.353758	0.240245	-0.008822	0.002357	-0.001466
01553	12226017	9.818762	0.359726	0.234046	-0.006242	0.004920	0.000785
01554	12226067	9.808197	0.367736	0.231416	-0.006438	0.001752	-0.000416
01555	12226117	9.796391	0.370893	0.248724	-0.004905	0.002904	-0.002754
01556	12226167	9.814026	0.352885	0.243787	-0.005054	0.000389	-0.001033
01557	12226217	9.802792	0.354582	0.246769	-0.004575	0.001691	0.000766
01558	12226267	9.792185	0.369420	0.236739	-0.006823	0.000479	-0.004169
01559	12226317	9.793688	0.339354	0.247068	-0.006023	0.001857	-0.000576
01560	12226367	9.820032	0.357323	0.225791	-0.004985	0.001260	-0.002442
01561	12226417	9.780749	0.369601	0.238446	-0.002398	0.000567	0.001492
01562	12226467	9.817531	0.344191	0.232713	-0.006875	-0.001781	-0.003000
01563	12226517	9.807602	0.354320	0.239573	-0.002138	0.002175	-0.002381
01564	12226567	9.798985	0.367594	0.258844	-0.006752	0.006043	0.000604
01565	12226617	9.814764	0.348340	0.249046	-0.004469	-0.001058	-0.002265
01566	12226667	9.821412	0.349424	0.249961	-0.002818	-0.000903	-0.004926
01567	12226717	9.797885	0.371380	0.235510	-0.002303	0.000338	-0.002134
01568	12226767	9.803194	0.360289	0.247719	-0.005274	0.002551	-0.000508
01569	12226817	9.798162	0.353151	0.227144	-0.006250	0.001918	-0.000545
01570	12226867	9.819505	0.368721	0.249976	-0.006932	-0.000580	0.001235
01571	12226917	9.802664	0.361117	0.254832	-0.004970	-0.001286	-0.000501
01572	12226967	9.808014	0.333746	0.214156	-0.000978	0.001138	0.001489
01573	12227017	9.802213	0.352732	0.228354	-0.003412	0.003292	0.001187
01574	12227067	9.805582	0.363544	0.239191	-0.005335	-0.004069	-0.001089
01575	12227117	9.824189	0.357239	0.247599	-0.002178	0.002604	-0.001096
01576	12227167	9.785504	0.373135	0.231286	-0.006229	0.001434	-0.000094
01577	12227217	9.804715	0.339903	0.234100	-0.006738	0.002201	-0.000221
01578	12227267	9.815998	0.359290	0.258467	-0.007798	0.002570	0.000619
01579	12227317	9.822873	0.335332	0.234307	-0.001197	-0.001056	0.001794
01580	12227367	9.813757	0.361441	0.269804	0.001237	0.005282	0.002307
01581	12227417	9.794185	0.377348	0.245352	-0.004090	0.002376	-0.001249
01582	12227467	9.795601	0.355181	0.252770	-0.003488	0.002608	-0.002147
01583	12227517	9.796782	0.356812	0.251922	-0.002691	0.003789	-0.001086
01584	12227567	9.820545	0.346308	0.242095	0.001479	0.001476	0.002031
01585	12227617	9.800134	0.364692	0.270450	-0.005183	-0.000646	-0.001362
01586	12227667	9.807871	0.351456	0.240288	-0.004300	0.000855	-0.001900
01587	12227717	9.801338	0.355371	0.248586	-0.004726	0.000838	-0.004332
01588	12227767	9.811656	0.351454	0.244949	-0.004888	0.000099	-0.002031
01589	12227817	9.810565	0.339125	0.252592	-0.004570	0.005794	0.002036
01590	12227867	9.813576	0.346627	0.251467	0.000329	0.001060	-0.002199
01591	12227917	9.793215	0.355390	0.252043	-0.005213	-0.000547	-0.000426
01592	12227967	9.827837	0.346202	0.257619	-0.008043	-0.000054	-0.001127
01593	12228017	9.804513	0.350232	0.246745	-0.005145	0.002687	0.001992
01594	12228067	9.810466	0.349251	0.248663	-0.005127	0.000808	-0.000298
01595	12228117	9.803889	0.343993	0.245476	-0.004320	-0.000731	-0.002709
01596	12228167	9.816566	0.365547	0.229944	-0.006139	0.001270	-0.002666
01597	12228217	9.814329	0.366649	0.243813	-0.007471	0.001958	-0.002784
01598	12228267	9.803598	0.351203	0.238868	-0.004051	0.002180	-0.000869
01599	12228317	9.803351	0.352940	0.236712	-0.005104	0.003033	-0.002655
01600	12228367	9.820918	0.356049	0.239930	-0.004962	0.000881	0.001754
01601	12228417	9.810766	0.351635	0.234555	-0.005139	0.003027	-0.002527
01602	12228467	9.826103	0.338583	0.244805	-0.004913	0.003231	-0.000253
01603	12228517	9.807649	0.370498	0.237416	-0.006013	0.002500	-0.002304
01604	12228567	9.809867	0.355443	0.256054	-0.004558	0.000210	0.002583
01605	12228617	9.807561	0.345517	0.224426	-0.004964	-0.000317	0.000400
01606	12228667	9.815238	0.353022	0.239738	-0.004282	0.001142	-0.002766
01607	12228717	9.807188	0.346766	0.243876	-0.002605	0.001683	-0.004239
01608	12228767	9.804392	0.365462	0.235204	-0.001448	0.000578	-0.002002
01609	12228817	9.790408	0.335686	0.246805	-0.002630	0.001886	0.000507
01610	12228867	9.802290	0.353125	0.215859	-0.005327	0.002193	0.000516
01611	12228917	9.802235	0.345888	0.238638	-0.006691	0.001912	0.001605
01612	12228967	9.804659	0.347349	0.229027	-0.002541	0.002853	-0.001768
01613	12229017	9.803620	0.357090	0.261417	-0.006789	0.003777	-0.002518
01614	12229067	9.815964	0.342544	0.259339	-0.003967	-0.000595	-0.002198
01615	12229117	9.833485	0.356070	0.248779	-0.000857	0.002469	0.000758
01616	12229167	9.812437	0.362834	0.248746	-0.004327	0.005854	-0.002546
01617	12229217	9.796955	0.362634	0.250135	-0.002880	0.001227	-0.004274
01618	12229267	9.807652	0.362720	0.253826	-0.005910	-0.002050	-0.003257
01619	12229317	9.786995	0.371587	0.225215	-0.002870	-0.001061	-0.002135
01620	12229367	9.783195	0.363788	0.238422	-0.004447	-0.000604	-0.002483
01621	12229417	9.796340	0.364455	0.267826	-0.004071	-0.000436	-0.002614
01622	12229467	9.801463	0.347193	0.245551	-0.001656	0.002652	0.002685
01623	12229517	9.794942	0.369075	0.253796	-0.002380	0.003152	0.001727
01624	12229567	9.808533	0.351088	0.249543	-0.003798	-0.001209	-0.003546
01625	12229617	9.809082	0.359521	0.259492	-0.002785	0.004753	-0.001468
01626	12229667	9.805161	0.354911	0.247328	-0.004455	-0.003670	-0.001987
01627	12229717	9.813272	0.350313	0.253896	-0.004826	0.000333	0.001141
01628	12229767	9.809161	0.379728	0.244588	-0.005539	0.001539	-0.003817
01629	12229817	9.791464	0.368317	0.240587	-0.003886	0.002282	0.000033
01630	12229867	9.807620	0.339023	0.241865	-0.003121	-0.000068	-0.002033
01631	12229917	9.812447	0.353758	0.252652	-0.002734	0.003202	0.000226
01632	12229967	9.785473	0.368402	0.233351	-0.005857	0.001825	0.000070
01633	12230017	9.807050	0.349995	0.247322	-0.001894	0.000696	-0.000014
01634	12230067	9.826404	0.349640	0.237666	-0.006439	0.001004	0.000672
01635	12230117	9.818955	0.345278	0.256705	-0.005879	0.002304	0.000230
01636	12230167	9.822195	0.361427	0.240554	-0.006785	0.000544	-0.001828
01637	12230217	9.822312	0.342607	0.259005	-0.006677	-0.000642	0.001337
01638	12230267	9.820903	0.357129	0.227179	-0.004883	0.003190	-0.000536
01639	12230317	9.821420	0.331386	0.234114	-0.001919	0.001410	0.000373
01640	12230367	9.812672	0.350231	0.262931	-0.004794	0.001585	0.000450
01641	12230417	9.807539	0.348617	0.248475	-0.003701	-0.001886	-0.000728
01642	12230467	9.802994	0.363321	0.260747	-0.006058	-0.001318	-0.003027
01643	12230517	9.787841	0.361607	0.250538	-0.005115	0.000508	-0.001381
01644	12230567	9.817204	0.357974	0.246243	0.001427	-0.001346	-0.001635
01645	12230617	9.813722	0.352600	0.242107	-0.002903	0.002094	-0.003401
01646	12230667	9.815513	0.340415	0.246053	-0.003605	0.000086	-0.001905
01647	12230717	9.814346	0.359926	0.242561	-0.002937	0.002386	-0.000802
01648	12230767	9.820402	0.353418	0.238403	-0.004692	0.001193	-0.001255
01649	12230817	9.817534	0.358849	0.228163	-0.005375	0.002241	-0.004480
01650	12230867	9.808857	0.381257	0.239209	-0.007128	0.002312	-0.001433
01651	12230917	9.812645	0.356328	0.254766	-0.005703	0.002986	-0.000086
01652	12230967	9.800800	0.352197	0.252946	-0.003041	0.003874	0.000299
01653	12231017	9.803048	0.352118	0.235395	-0.005276	0.001342	-0.002147
01654	12231067	9.802765	0.352853	0.242642	-0.002605	0.003046	-0.000573
01655	12231117	9.811745	0.361349	0.235833	-0.003160	0.001520	0.001659
01656	12231167	9.834080	0.350692	0.226565	-0.001734	0.000371	-0.003156
01657	12231217	9.812076	0.355044	0.233727	-0.002434	0.002623	-0.001376
01658	12231267	9.796806	0.356444	0.235262	-0.005705	0.003052	0.001293
01659	12231317	9.816765	0.349775	0.257039	-0.005147	-0.000948	-0.001774
01660	12231367	9.822313	0.347823	0.249411	-0.001620	0.000119	0.000175
01661	12231417	9.802457	0.369430	0.258198	-0.002882	0.002878	0.000836
01662	12231467	9.809269	0.367935	0.237720	-0.006167	0.000329	0.000288
01663	12231517	9.822596	0.354133	0.266951	-0.003944	0.001984	0.000797
01664	12231567	9.817137	0.333042	0.230792	-0.007955	0.001332	0.000259
01665	12231617	9.805170	0.339648	0.225289	-0.005736	0.000791	-0.001668
01666	12231667	9.828622	0.339198	0.247988	-0.005689	0.003140	-0.004221
01667	12231717	9.825740	0.347157	0.235263	-0.006613	-0.000943	-0.002930
01668	12231767	9.806720	0.360482	0.240140	-0.005317	0.001096	0.001857
01669	12231817	9.798634	0.355819	0.250196	-0.001398	-0.001039	-0.001305
01670	12231867	9.835266	0.354807	0.258701	-0.003655	0.000995	0.001465
01671	12231917	9.810686	0.364288	0.246684	-0.001644	0.003124	0.000642
01672	12231967	9.805302	0.361848	0.237572	-0.003067	0.003056	-0.004768
01673	12232017	9.800993	0.367175	0.268400	-0.005794	-0.000405	-0.001127
01674	12232067	9.795685	0.351036	0.234728	-0.004998	0.002639	-0.002586
01675	12232117	9.793666	0.383510	0.226693	-0.005478	-0.002167	0.001425
01676	12232167	9.800773	0.357309	0.247088	-0.002383	-0.002285	-0.002366
01677	12232217	9.795244	0.364167	0.241943	-0.005218	0.002804	-0.000152
01678	12232267	9.818165	0.355554	0.250150	-0.001656	0.001314	0.000280
01679	12232317	9.816894	0.347178	0.241038	-0.001207	-0.000039	-0.003705
01680	12232367	9.810137	0.368409	0.250939	-0.005398	0.002609	0.002728
01681	12232417	9.806496	0.353545	0.253632	-0.003896	0.001204	-0.002923
01682	12232467	9.816245	0.351632	0.259737	-0.005237	-0.000949	-0.002322
01683	12232517	9.825057	0.353210	0.256112	-0.005613	0.000856	-0.001636
01684	12232567	9.818574	0.362269	0.246403	-0.004412	-0.003839	-0.001697
01685	12232617	9.825280	0.357588	0.249417	-0.005506	0.000532	-0.001287
01686	12232667	9.810976	0.358301	0.251416	-0.004727	0.001360	0.000799
01687	12232717	9.800653	0.352912	0.236378	-0.003569	0.001086	-0.000868
01688	12232767	9.802712	0.363289	0.227996	-0.003368	0.000966	0.001375
01689	12232817	9.805033	0.374823	0.254198	-0.002807	-0.000873	-0.001428
01690	12232867	9.803493	0.349543	0.246347	0.000044	-0.001112	-0.002398
