PacketCounter	SampleTimeFine	Acc_X	Acc_Y	Acc_Z	Gyr_X	Gyr_Y	Gyr_Z
00001	13605217	0.220945	-9.755181	0.169809	-0.003333	0.005575	0.000072
00002	13605267	0.234657	-9.776319	0.182183	-0.003504	0.001631	-0.001682
00003	13605317	0.209926	-9.777098	0.182273	-0.005894	0.002559	-0.000805
00004	13605367	0.235899	-9.780533	0.179756	-0.005059	0.000547	0.003252
00005	13605417	0.222868	-9.785743	0.184028	-0.001299	0.001966	0.000560
00006	13605467	0.223344	-9.800605	0.178419	-0.004641	-0.000837	-0.000573
00007	13605517	0.239066	-9.790568	0.186898	-0.005136	0.002031	0.001052
00008	13605567	0.224792	-9.764005	0.175668	-0.008532	0.000028	0.000920
00009	13605617	0.208402	-9.756823	0.204176	-0.008475	-0.000843	0.000245
00010	13605667	0.195887	-9.741822	0.175630	-0.005326	-0.000072	0.001045
00011	13605717	0.203345	-9.762983	0.184737	-0.004835	0.001317	-0.001292
00012	13605767	0.206955	-9.791718	0.189266	-0.003965	0.003436	-0.000355
00013	13605817	0.215416	-9.787841	0.206439	-0.005130	0.004669	-0.001597
00014	13605867	0.208417	-9.791620	0.184193	-0.006070	0.003175	0.000387
00015	13605917	0.214914	-9.797300	0.188822	-0.001414	0.003517	-0.000169
00016	13605967	0.219466	-9.790795	0.186139	-0.002771	0.000514	-0.002073
00017	13606017	0.211514	-9.790740	0.191965	-0.002909	0.003257	-0.000232
00018	13606067	0.211865	-9.800539	0.196290	-0.009323	0.004825	0.000083
00019	13606117	0.203117	-9.761324	0.184170	-0.006634	0.002514	-0.002624
00020	13606167	0.199940	-9.763499	0.199843	-0.002322	0.000786	-0.001335
00021	13606217	0.208685	-9.772783	0.193755	-0.006395	0.004131	-0.001018
00022	13606267	0.203402	-9.783792	0.180402	-0.005923	0.000135	-0.002933
00023	13606317	0.205065	-9.779346	0.170180	-0.002196	-0.000315	-0.001724
00024	13606367	0.191129	-9.768158	0.171658	-0.003694	0.004726	-0.003297
00025	13606417	0.210878	-9.795527	0.178083	0.000513	0.000255	0.000993
00026	13606467	0.216928	-9.802923	0.154653	-0.005652	0.001689	-0.003793
00027	13606517	0.217398	-9.793985	0.159999	-0.003098	-0.001974	-0.000034
00028	13606567	0.200801	-9.776400	0.175859	-0.006155	-0.000710	-0.003641
00029	13606617	0.221035	-9.793500	0.162227	-0.009032	-0.001696	-0.002457
00030	13606667	0.222125	-9.777495	0.171198	-0.006264	-0.000900	0.000845
00031	13606717	0.207604	-9.773474	0.160230	-0.003983	0.006054	0.000942
00032	13606767	0.227529	-9.783624	0.173332	-0.004979	0.001603	-0.002766
00033	13606817	0.207102	-9.769065	0.166708	-0.004729	0.003001	-0.000677
00034	13606867	0.228538	-9.779401	0.177168	-0.003818	-0.001536	0.000322
00035	13606917	0.215846	-9.786650	0.174782	-0.007793	-0.001444	-0.001813
00036	13606967	0.241862	-9.777785	0.175617	-0.005125	-0.001591	0.000293
00037	13607017	0.229255	-9.800361	0.183228	-0.002141	0.000241	-0.000190
00038	13607067	0.234715	-9.797796	0.175446	-0.004677	-0.004581	0.002102
00039	13607117	0.226861	-9.808467	0.168314	-0.004213	0.002848	-0.002574
00040	13607167	0.232044	-9.783436	0.179778	-0.006299	0.001900	-0.003948
00041	13607217	0.223241	-9.774686	0.206419	-0.005666	0.003897	0.002697
00042	13607267	0.238974	-9.778275	0.189393	-0.003969	-0.001797	-0.001380
00043	13607317	0.220923	-9.759844	0.179841	-0.004797	0.001027	-0.001389
00044	13607367	0.212903	-9.763694	0.207713	-0.003901	0.002340	0.000377
00045	13607417	0.246124	-9.806726	0.162893	-0.007391	-0.000017	-0.001107
00046	13607467	0.221835	-9.799192	0.225153	-0.003268	0.000446	0.001039
00047	13607517	0.237647	-9.783896	0.184141	-0.003056	0.000868	-0.000311
00048	13607567	0.213092	-9.800586	0.184949	-0.004363	-0.000674	-0.001724
00049	13607617	0.217117	-9.793080	0.209155	-0.004331	-0.000448	-0.001751
00050	13607667	0.198809	-9.782733	0.185465	-0.003915	-0.000438	0.000360
00051	13607717	0.224294	-9.793257	0.226247	-0.007610	-0.000350	-0.005525
00052	13607767	0.198531	-9.771291	0.181191	-0.002731	0.002418	-0.002543
00053	13607817	0.211021	-9.789094	0.191679	-0.004938	0.002509	-0.001736
00054	13607867	0.202689	-9.778177	0.200484	-0.006299	-0.000706	0.001138
00055	13607917	0.210599	-9.775843	0.147107	-0.003351	0.000797	-0.001235
00056	13607967	0.208299	-9.780976	0.186156	-0.005239	0.002316	0.001469
00057	13608017	0.205863	-9.787618	0.168150	-0.006635	-0.002488	-0.000476
00058	13608067	0.199278	-9.792578	0.162251	-0.003278	0.002769	-0.000010
00059	13608117	0.196282	-9.791866	0.174980	-0.001425	0.002436	-0.005171
00060	13608167	0.203904	-9.791654	0.183035	-0.005687	-0.000147	-0.000819
00061	13608217	0.228767	-9.796240	0.176960	-0.004062	0.001241	0.000050
00062	13608267	0.236394	-9.777875	0.146024	-0.003497	0.002503	-0.001391
00063	13608317	0.216770	-9.808966	0.177305	-0.001560	0.000928	-0.000278
00064	13608367	0.193878	-9.780715	0.157626	-0.008261	0.002651	0.000712
00065	13608417	0.202858	-9.790205	0.165041	-0.007356	-0.001054	-0.002293
00066	13608467	0.211925	-9.781051	0.178460	-0.003500	0.001668	-0.000495
00067	13608517	0.235009	-9.772774	0.168100	-0.001960	0.001502	-0.000981
00068	13608567	0.222048	-9.773920	0.186071	-0.004084	0.000586	-0.003926
00069	13608617	0.213126	-9.768574	0.154534	-0.003532	-0.000434	-0.001914
00070	13608667	0.229835	-9.790461	0.156654	-0.000240	0.003558	-0.002994
00071	13608717	0.223097	-9.794713	0.180808	-0.004289	0.003134	-0.003144
00072	13608767	0.246062	-9.804151	0.180961	-0.004692	0.002735	-0.003886
00073	13608817	0.239873	-9.788399	0.185585	-0.001390	-0.000461	-0.001153
00074	13608867	0.216832	-9.760302	0.191175	-0.002862	0.002809	-0.000072
00075	13608917	0.227808	-9.789213	0.181794	-0.003207	0.003310	-0.003147
00076	13608967	0.209096	-9.772684	0.203010	-0.000613	0.002228	-0.003254
00077	13609017	0.222187	-9.768908	0.199472	-0.003806	0.004110	-0.003587
00078	13609067	0.240018	-9.795303	0.186995	-0.003020	0.000282	-0.003360
00079	13609117	0.222334	-9.779356	0.184798	-0.007224	0.000986	-0.001703
00080	13609167	0.214696	-9.778158	0.193139	-0.002708	-0.000320	-0.002304
00081	13609217	0.225646	-9.795507	0.189193	-0.003190	-0.001168	-0.000832
00082	13609267	0.236856	-9.803115	0.199236	-0.002680	0.000836	-0.001401
00083	13609317	0.221857	-9.797334	0.196494	-0.002013	0.001848	-0.004024
00084	13609367	0.209492	-9.777253	0.207457	-0.003812	-0.000594	0.000840
00085	13609417	0.234705	-9.784802	0.162932	-0.006735	0.000901	0.001018
00086	13609467	0.212744	-9.776413	0.186560	-0.004991	0.003421	-0.000704
00087	13609517	0.215065	-9.777178	0.176357	-0.003167	0.002059	-0.002735
00088	13609567	0.199697	-9.765709	0.173683	-0.005986	0.004299	-0.003196
00089	13609617	0.198503	-9.763803	0.172531	-0.003303	0.001211	-0.004441
00090	13609667	0.200983	-9.783995	0.176318	-0.006548	0.003134	0.000901
00091	13609717	0.205709	-9.780583	0.158060	-0.007420	0.002979	-0.004322
00092	13609767	0.206535	-9.786536	0.175968	-0.009031	0.002605	-0.000314
00093	13609817	0.204590	-9.800030	0.157121	-0.006703	-0.000095	0.002711
00094	13609867	0.202222	-9.797548	0.163898	-0.006260	-0.000057	-0.000463
00095	13609917	0.205756	-9.774197	0.174621	-0.004556	0.001352	-0.003663
00096	13609967	0.208823	-9.804824	0.163614	-0.003685	-0.005352	-0.004470
00097	13610017	0.192032	-9.777200	0.190144	-0.001955	0.000307	-0.000920
00098	13610067	0.208811	-9.782190	0.173028	-0.002505	0.002463	-0.000267
00099	13610117	0.224862	-9.781515	0.157311	-0.003523	0.002377	-0.000808
00100	13610167	0.219819	-9.789207	0.175335	-0.002768	-0.001190	0.002341
00101	13610217	0.238318	-9.800354	0.175230	-0.003956	0.003085	0.000989
00102	13610267	0.202639	-9.789792	0.153394	-0.002310	0.001206	-0.000945
00103	13610317	0.205400	-9.786821	0.178335	0.000183	0.000307	-0.002529
00104	13610367	0.243696	-9.793933	0.193470	-0.001387	0.001375	-0.002517
00105	13610417	0.234071	-9.798139	0.181497	-0.004128	0.001071	-0.001711
00106	13610467	0.231042	-9.786205	0.189843	-0.004845	0.002576	-0.001734
00107	13610517	0.228435	-9.775469	0.198989	-0.005887	-0.002123	-0.001886
00108	13610567	0.213477	-9.780349	0.196211	-0.002838	0.001937	-0.002062
00109	13610617	0.237102	-9.780804	0.198502	-0.004555	0.003485	-0.002021
00110	13610667	0.239436	-9.776005	0.196528	-0.004587	0.000318	-0.003386
00111	13610717	0.215513	-9.775426	0.201379	-0.004985	0.002094	-0.000644
00112	13610767	0.220280	-9.781666	0.194278	-0.002887	0.001120	-0.004309
00113	13610817	0.218097	-9.782438	0.196622	-0.005924	0.001234	-0.002605
00114	13610867	0.237824	-9.786985	0.168730	-0.004969	-0.001782	-0.002047
00115	13610917	0.233652	-9.787538	0.186282	-0.003517	-0.000013	-0.001852
00116	13610967	0.225242	-9.795637	0.181274	-0.004272	-0.001644	-0.004067
00117	13611017	0.199878	-9.774210	0.186907	-0.001813	0.001924	-0.001229
00118	13611067	0.211898	-9.777891	0.220060	0.001282	-0.000932	-0.002246
00119	13611117	0.201595	-9.762952	0.181186	-0.002091	-0.001340	0.001797
00120	13611167	0.211563	-9.763938	0.176040	-0.005739	-0.000671	-0.004315
00121	13611217	0.202401	-9.776729	0.182518	-0.005224	-0.003921	-0.003241
00122	13611267	0.212945	-9.769928	0.181552	-0.004745	0.000353	-0.001908
00123	13611317	0.204148	-9.788032	0.179237	-0.003615	0.000246	-0.000272
00124	13611367	0.228925	-9.789632	0.163988	-0.005242	0.000365	-0.006776
00125	13611417	0.208761	-9.789086	0.189750	-0.003764	0.000557	-0.004181
00126	13611467	0.209130	-9.782176	0.172274	-0.003481	-0.000981	-0.000084
00127	13611517	0.214245	-9.787239	0.166321	-0.001907	0.001665	-0.001331
00128	13611567	0.209554	-9.783345	0.155971	-0.001658	0.001855	-0.002034
00129	13611617	0.199804	-9.780368	0.185707	-0.004828	0.001864	-0.003752
00130	13611667	0.203591	-9.771976	0.183066	-0.002684	0.002203	0.001178
00131	13611717	0.203396	-9.782968	0.173062	-0.001651	0.002860	-0.002190
00132	13611767	0.213477	-9.791516	0.181582	-0.003743	0.004376	-0.000252
00133	13611817	0.225153	-9.784909	0.162607	-0.003029	0.001932	0.000115
00134	13611867	0.215709	-9.797332	0.176012	-0.005198	-0.001562	-0.001210
00135	13611917	0.209601	-9.764585	0.185972	-0.002015	0.004210	-0.002979
00136	13611967	0.215131	-9.791889	0.191601	-0.005699	0.000075	-0.002228
00137	13612017	0.220299	-9.777584	0.191431	-0.001018	-0.000938	0.000607
00138	13612067	0.215929	-9.774815	0.192876	-0.003456	0.000579	0.002772
00139	13612117	0.211973	-9.783486	0.182541	-0.004005	0.002301	-0.001993
00140	13612167	0.216949	-9.781433	0.176481	-0.004312	-0.000026	0.000016
00141	13612217	0.241339	-9.780351	0.203018	-0.004207	0.001457	-0.003478
00142	13612267	0.202912	-9.758013	0.200571	-0.004578	0.003257	-0.001375
00143	13612317	0.206640	-9.758246	0.187781	-0.004815	0.001544	-0.002377
00144	13612367	0.228309	-9.779557	0.187487	-0.003939	0.000267	-0.002265
00145	13612417	0.236074	-9.797235	0.201865	-0.003415	-0.000437	-0.003707
00146	13612467	0.217547	-9.777789	0.186975	-0.007403	-0.001501	0.000109
00147	13612517	0.235321	-9.795230	0.194173	-0.003366	0.001380	-0.000143
00148	13612567	0.225254	-9.780891	0.209619	-0.002755	0.001456	0.000465
00149	13612617	0.228561	-9.799210	0.185161	-0.002702	0.003617	-0.000841
00150	13612667	0.226271	-9.783368	0.186514	-0.005692	0.001979	-0.002728
00151	13612717	0.223907	-9.788190	0.174398	-0.003086	0.003771	-0.000773
00152	13612767	0.219422	-9.781226	0.165004	-0.002556	0.002006	-0.000713
00153	13612817	0.235556	-9.772084	0.185515	-0.004589	-0.000414	0.000265
00154	13612867	0.228846	-9.785923	0.185302	-0.006503	0.000454	0.000371
00155	13612917	0.218920	-9.763277	0.170036	-0.004351	-0.000966	-0.001401
00156	13612967	0.216553	-9.764812	0.160114	-0.008931	-0.002658	0.000719
00157	13613017	0.212157	-9.767265	0.177023	-0.004090	0.000142	0.001806
00158	13613067	0.221256	-9.782849	0.179379	-0.003679	-0.000020	-0.001978
00159	13613117	0.209635	-9.783678	0.178176	0.001535	0.001043	-0.002845
00160	13613167	0.208552	-9.782425	0.188018	-0.004721	-0.001588	-0.003324
00161	13613217	0.219353	-9.801257	0.172029	-0.002340	0.001298	-0.001685
00162	13613267	0.200870	-9.787903	0.168164	-0.006904	-0.000270	-0.001486
00163	13613317	0.212868	-9.787444	0.194046	-0.005387	-0.000463	0.000301
00164	13613367	0.199536	-9.794703	0.176886	-0.003666	-0.000570	-0.003130
00165	13613417	0.211083	-9.780934	0.170319	-0.005686	0.001752	-0.002600
00166	13613467	0.227901	-9.772229	0.188954	-0.003196	-0.000878	-0.000060
00167	13613517	0.209917	-9.789367	0.177788	-0.005396	0.000793	-0.001839
00168	13613567	0.208407	-9.795294	0.191751	-0.001428	0.000870	0.000361
00169	13613617	0.205313	-9.769765	0.179935	-0.005489	-0.002243	0.000232
00170	13613667	0.226691	-9.796362	0.183441	-0.003721	0.001108	-0.003860
00171	13613717	0.207759	-9.796636	0.186100	-0.004163	0.002433	0.000189
00172	13613767	0.212767	-9.785728	0.206070	-0.002565	0.001363	-0.000110
00173	13613817	0.216072	-9.800545	0.200559	-0.002025	-0.000564	0.000327
00174	13613867	0.208930	-9.787020	0.193754	-0.005930	0.002165	-0.005737
00175	13613917	0.222025	-9.785854	0.190115	-0.005098	-0.000855	-0.004154
00176	13613967	0.221495	-9.795197	0.180553	-0.005075	-0.000661	-0.005279
00177	13614017	0.226682	-9.781155	0.181778	-0.002414	0.000589	-0.000726
00178	13614067	0.217139	-9.776974	0.179611	-0.003672	0.000789	-0.002287
00179	13614117	0.218575	-9.786290	0.185370	-0.002932	-0.000257	0.000295
00180	13614167	0.235581	-9.773998	0.186682	-0.005719	0.002044	0.000219
00181	13614217	0.209036	-9.770977	0.200267	-0.004838	0.001480	-0.000934
00182	13614267	0.217043	-9.772708	0.195511	-0.002141	0.001945	-0.003252
00183	13614317	0.230926	-9.791059	0.181246	-0.004735	0.000896	-0.003057
00184	13614367	0.219976	-9.774260	0.175104	-0.003200	0.000156	-0.001300
00185	13614417	0.207399	-9.785783	0.174244	-0.003758	0.000957	0.002035
00186	13614467	0.221062	-9.772065	0.172409	-0.004649	0.001747	0.002462
00187	13614517	0.227780	-9.779255	0.167150	-0.004230	0.003228	-0.004490
00188	13614567	0.234526	-9.781381	0.172052	-0.005443	0.001409	0.001178
00189	13614617	0.209014	-9.762265	0.173474	-0.002886	0.000747	0.002995
00190	13614667	0.235529	-9.790466	0.161818	-0.003818	0.003498	-0.001477
00191	13614717	0.217023	-9.784210	0.172229	-0.003262	0.001957	-0.002223
00192	13614767	0.219314	-9.783572	0.194289	-0.004008	-0.000935	-0.003996
00193	13614817	0.218215	-9.795348	0.203127	-0.005317	0.004179	-0.003679
00194	13614867	0.220590	-9.777966	0.185892	-0.002964	0.004135	0.001122
00195	13614917	0.220529	-9.784027	0.178640	-0.003929	0.000014	0.000302
00196	13614967	0.232669	-9.798956	0.171635	-0.004789	0.000838	-0.000107
00197	13615017	0.209311	-9.778508	0.180906	-0.001891	0.000048	-0.001789
00198	13615067	0.225986	-9.784526	0.184695	-0.002673	-0.001615	-0.002276
00199	13615117	0.199790	-9.771558	0.184020	-0.004335	-0.000152	0.001362
00200	13615167	0.209494	-9.787197	0.190990	-0.003602	0.002995	0.001853
00201	13615217	0.206307	-9.799485	0.185242	-0.004646	0.003785	0.002054
00202	13615267	0.202855	-9.775157	0.173442	-0.006603	0.001613	-0.000450
00203	13615317	0.204857	-9.779518	0.180893	-0.005575	0.004337	-0.004382
00204	13615367	0.216145	-9.788940	0.170371	-0.002679	0.000806	-0.001721
00205	13615417	0.228821	-9.793468	0.197524	-0.004387	0.000199	-0.000465
00206	13615467	0.204166	-9.776711	0.183441	-0.007121	0.000896	0.000697
00207	13615517	0.199388	-9.796989	0.202017	-0.005347	0.003377	-0.001438
00208	13615567	0.213238	-9.765686	0.183230	-0.005198	0.003435	-0.005285
00209	13615617	0.219673	-9.790630	0.175059	-0.004754	0.000001	0.001842
00210	13615667	0.217575	-9.783631	0.196615	-0.005034	0.001676	-0.000136
00211	13615717	0.209229	-9.777218	0.189800	-0.003737	-0.002445	-0.003396
00212	13615767	0.233313	-9.798487	0.187931	-0.004959	-0.000107	-0.002360
00213	13615817	0.224186	-9.795707	0.200424	-0.005913	0.001910	-0.003114
00214	13615867	0.225755	-9.787189	0.172629	-0.005345	0.001546	0.002879
00215	13615917	0.222211	-9.790834	0.190647	-0.004239	-0.001671	-0.001533
00216	13615967	0.205627	-9.773331	0.180429	-0.004784	0.001709	-0.000390
00217	13616017	0.210310	-9.785269	0.188989	-0.004818	0.001603	-0.003309
00218	13616067	0.237478	-9.801748	0.172074	-0.006139	0.002006	-0.002794
00219	13616117	0.224001	-9.778063	0.179053	-0.005013	0.002999	-0.000287
00220	13616167	0.236144	-9.778115	0.176956	-0.003278	-0.000330	0.001004
00221	13616217	0.231046	-9.774464	0.166348	-0.006217	0.002127	-0.005322
00222	13616267	0.203909	-9.774490	0.192759	0.000502	0.002477	-0.001908
00223	13616317	0.222968	-9.787654	0.184805	-0.007049	0.002506	-0.000798
00224	13616367	0.225055	-9.778723	0.176449	-0.006685	0.000928	-0.003246
00225	13616417	0.215601	-9.796481	0.166722	-0.004398	0.003452	-0.004134
00226	13616467	0.218597	-9.802190	0.185675	-0.002670	0.002582	-0.002413
00227	13616517	0.221024	-9.787166	0.182240	-0.005222	0.001277	-0.001419
00228	13616567	0.222403	-9.799581	0.188393	-0.006168	-0.001451	-0.003482
00229	13616617	0.216006	-9.791025	0.182489	-0.006033	-0.003310	0.001220
00230	13616667	0.223238	-9.780865	0.191004	-0.007018	0.001606	-0.000229
00231	13616717	0.218494	-9.767787	0.169587	-0.002400	-0.000861	-0.000312
00232	13616767	0.209357	-9.780470	0.169873	-0.003422	-0.001143	-0.003265
00233	13616817	0.213098	-9.786632	0.187662	-0.002229	-0.001183	0.000034
00234	13616867	0.206672	-9.794659	0.195002	-0.004975	0.000905	0.002554
00235	13616917	0.194565	-9.770651	0.182835	-0.005350	0.001703	0.001150
00236	13616967	0.207693	-9.761339	0.189219	-0.004613	0.001552	0.002107
00237	13617017	0.220162	-9.796720	0.186191	-0.001348	-0.000679	0.000741
00238	13617067	0.226845	-9.787218	0.175001	-0.005525	0.000723	-0.002901
00239	13617117	0.223586	-9.794399	0.176748	-0.002713	-0.000292	-0.002270
00240	13617167	0.201291	-9.782465	0.200086	-0.004122	0.000176	0.001330
00241	13617217	0.212387	-9.801378	0.189811	-0.002736	0.001517	-0.001365
00242	13617267	0.218205	-9.781754	0.167565	-0.007462	0.003503	-0.001241
00243	13617317	0.213162	-9.789652	0.183164	-0.006597	0.000486	0.000760
00244	13617367	0.213925	-9.793804	0.191867	-0.003854	0.001464	-0.001420
00245	13617417	0.212350	-9.789701	0.170513	-0.004525	0.003485	-0.003747
00246	13617467	0.214642	-9.781979	0.194998	-0.005564	0.000180	0.000338
00247	13617517	0.202138	-9.780753	0.166546	-0.002676	0.001076	0.002905
00248	13617567	0.211674	-9.804574	0.180420	-0.001942	-0.000206	0.000746
00249	13617617	0.223137	-9.776953	0.168091	-0.005403	0.000083	0.000111
00250	13617667	0.218672	-9.792449	0.184655	-0.003681	0.002279	0.000475
00251	13617717	0.208075	-9.770717	0.166472	-0.005892	0.001300	-0.001032
00252	13617767	0.202432	-9.782406	0.181606	-0.006185	0.003622	-0.001754
00253	13617817	0.228379	-9.783425	0.176439	-0.005517	-0.001400	0.000589
00254	13617867	0.240088	-9.782793	0.175319	-0.008462	0.001641	-0.001477
00255	13617917	0.190930	-9.774553	0.186260	-0.004127	0.000809	-0.004561
00256	13617967	0.204521	-9.776736	0.184791	-0.000150	0.000723	-0.002684
00257	13618017	0.235358	-9.786572	0.170671	-0.007235	0.002406	-0.001667
00258	13618067	0.211915	-9.803325	0.177078	-0.002912	-0.001801	0.001699
00259	13618117	0.225553	-9.786383	0.181217	-0.006332	0.000000	-0.001071
00260	13618167	0.218051	-9.801567	0.160015	-0.003201	0.002087	-0.003249
00261	13618217	0.228589	-9.796556	0.166857	-0.005269	-0.001044	0.000459
00262	13618267	0.227905	-9.784496	0.168564	-0.003305	-0.000427	0.001188
00263	13618317	0.224376	-9.789090	0.171004	-0.002966	0.004162	0.000831
00264	13618367	0.211508	-9.781671	0.171950	-0.004613	-0.001810	-0.001372
00265	13618417	0.217584	-9.772877	0.176036	-0.005769	0.000265	-0.003122
00266	13618467	0.221430	-9.790370	0.190574	-0.006510	0.002941	0.001509
00267	13618517	0.208710	-9.766563	0.174957	-0.002965	-0.001170	-0.001177
00268	13618567	0.220510	-9.772957	0.198996	-0.006513	-0.000323	-0.001616
00269	13618617	0.210517	-9.791713	0.191951	-0.010406	0.005742	0.000156
00270	13618667	0.237517	-9.801946	0.200595	-0.003916	0.003693	0.000542
00271	13618717	0.231534	-9.819525	0.197605	-0.002114	0.004507	0.000896
00272	13618767	0.206243	-9.787289	0.193793	-0.004210	-0.000381	-0.002167
00273	13618817	0.221018	-9.782510	0.203824	-0.003105	0.001516	0.002104
00274	13618867	0.194557	-9.763427	0.190995	-0.005453	0.000499	-0.001742
00275	13618917	0.191896	-9.752532	0.174532	-0.003088	-0.000691	-0.003353
00276	13618967	0.215595	-9.758430	0.160547	-0.002374	0.000326	-0.002200
00277	13619017	0.219432	-9.778076	0.191833	-0.003962	0.003047	-0.001444
00278	13619067	0.220865	-9.785448	0.178408	-0.005697	0.000105	-0.002005
00279	13619117	0.209642	-9.789935	0.183515	-0.003044	0.000060	-0.001591
00280	13619167	0.212354	-9.802220	0.197628	-0.004020	0.002654	-0.002982
00281	13619217	0.205091	-9.798024	0.181375	-0.004905	0.002746	0.001572
00282	13619267	0.222643	-9.800887	0.196825	-0.005700	-0.001863	-0.001978
00283	13619317	0.222572	-9.788934	0.174981	-0.008279	0.002741	-0.002302
00284	13619367	0.223109	-9.804206	0.150438	-0.000732	-0.000095	-0.001437
00285	13619417	0.214244	-9.774557	0.189708	-0.003016	-0.002012	-0.004806
00286	13619467	0.218135	-9.782855	0.176933	-0.005408	0.001315	0.001016
00287	13619517	0.219180	-9.785338	0.169822	-0.003360	0.004280	-0.001796
00288	13619567	0.196181	-9.784779	0.176369	-0.004437	-0.003088	0.001924
00289	13619617	0.229081	-9.782072	0.166607	-0.005281	-0.000587	0.002640
00290	13619667	0.228917	-9.780262	0.156124	-0.002289	0.000689	0.000042
00291	13619717	0.233280	-9.799355	0.182668	-0.004368	-0.000154	0.001169
00292	13619767	0.208968	-9.800316	0.194254	-0.004692	0.001771	-0.001612
00293	13619817	0.232205	-9.772110	0.168562	-0.003599	-0.000698	-0.003066
00294	13619867	0.203629	-9.773027	0.190113	-0.001956	0.000175	-0.001314
00295	13619917	0.226828	-9.755653	0.143105	-0.009060	0.001466	-0.001332
00296	13619967	0.221425	-9.794158	0.205301	-0.002262	0.004198	-0.000632
00297	13620017	0.225876	-9.783010	0.146958	-0.005460	-0.000955	0.000536
00298	13620067	0.217548	-9.780766	0.210974	-0.005495	-0.000287	-0.004493
00299	13620117	0.211471	-9.776536	0.177438	-0.007446	-0.000090	-0.002530
00300	13620167	0.210236	-9.778140	0.172920	-0.004705	0.002479	-0.000185
00301	13620217	0.231298	-9.800241	0.208082	-0.005143	-0.000081	-0.001384
00302	13620267	0.221711	-9.780358	0.171627	-0.005929	0.001622	-0.001055
00303	13620317	0.211303	-9.786671	0.204858	-0.003967	0.002560	0.002187
00304	13620367	0.211031	-9.803665	0.182822	-0.000826	-0.002038	-0.000956
00305	13620417	0.198214	-9.800282	0.199242	-0.001325	0.001732	-0.000838
00306	13620467	0.227241	-9.797713	0.194435	-0.002623	0.002420	-0.000191
00307	13620517	0.226852	-9.761139	0.160128	-0.004982	0.000953	-0.001893
00308	13620567	0.225775	-9.789155	0.192097	-0.002866	0.000829	-0.001544
00309	13620617	0.206161	-9.780641	0.193594	-0.004297	0.000384	-0.002696
00310	13620667	0.211987	-9.781575	0.166915	-0.005304	-0.000952	0.000436
00311	13620717	0.204586	-9.792191	0.202673	-0.007449	-0.000998	-0.002024
00312	13620767	0.210846	-9.780925	0.169543	-0.007424	0.002199	-0.002870
00313	13620817	0.224401	-9.817864	0.206710	-0.003913	0.001359	-0.001827
00314	13620867	0.209691	-9.788503	0.167502	-0.004861	0.001182	-0.001632
00315	13620917	0.204986	-9.803288	0.199843	-0.005371	0.003142	-0.002521
00316	13620967	0.237642	-9.803206	0.174503	-0.003568	0.001919	0.001282
00317	13621017	0.217891	-9.780539	0.180851	-0.003590	-0.001962	-0.003188
00318	13621067	0.199936	-9.768048	0.202472	-0.004256	0.002391	-0.001245
00319	13621117	0.217973	-9.777189	0.163900	-0.000723	0.000735	-0.002897
00320	13621167	0.199945	-9.752826	0.184228	-0.005379	-0.001606	-0.002642
00321	13621217	0.212091	-9.772147	0.170341	-0.004127	0.003425	-0.001108
00322	13621267	0.215500	-9.786324	0.185260	-0.000064	0.002374	0.001116
00323	13621317	0.208938	-9.787970	0.178202	-0.003953	0.002847	-0.001689
00324	13621367	0.215020	-9.807602	0.164170	0.000089	-0.000668	-0.002361
00325	13621417	0.211196	-9.795856	0.184006	-0.005022	0.004211	-0.003666
00326	13621467	0.214006	-9.780163	0.184185	-0.003605	-0.002017	-0.000050
00327	13621517	0.231504	-9.783062	0.171187	-0.004123	0.000165	-0.000197
00328	13621567	0.229636	-9.783037	0.183511	-0.000700	-0.003237	-0.003625
00329	13621617	0.226871	-9.771042	0.171902	-0.004799	0.003345	-0.002009
00330	13621667	0.230131	-9.763025	0.162554	-0.004963	-0.000788	-0.001356
00331	13621717	0.215423	-9.777040	0.167432	-0.003797	0.002307	0.002087
00332	13621767	0.224445	-9.769577	0.167125	-0.003465	0.002629	-0.000539
00333	13621817	0.213616	-9.774405	0.194910	-0.007389	0.001367	-0.000183
00334	13621867	0.232102	-9.796339	0.170593	-0.006869	0.000622	-0.005607
00335	13621917	0.237401	-9.808753	0.164393	-0.004546	0.001153	-0.003561
00336	13621967	0.208072	-9.800879	0.184793	-0.003086	0.000603	-0.001960
00337	13622017	0.233637	-9.805749	0.182431	-0.005387	0.000563	-0.000581
00338	13622067	0.226434	-9.797123	0.171074	-0.000738	0.004616	0.000134
00339	13622117	0.223493	-9.777030	0.173638	-0.001925	0.000530	0.000536
00340	13622167	0.217275	-9.766885	0.171999	-0.004373	0.000996	-0.001124
00341	13622217	0.230339	-9.796931	0.192546	-0.003865	0.003268	0.000135
00342	13622267	0.216828	-9.765438	0.170065	-0.005583	-0.000288	-0.000837
00343	13622317	0.201568	-9.776444	0.178704	-0.004261	0.002714	-0.000119
00344	13622367	0.228397	-9.786631	0.184633	-0.003528	0.002564	-0.000796
00345	13622417	0.218415	-9.781213	0.178958	-0.002187	-0.000841	-0.004728
00346	13622467	0.224150	-9.802379	0.171302	-0.001512	-0.000592	-0.000437
00347	13622517	0.221115	-9.811127	0.182414	-0.006281	0.000449	-0.000925
00348	13622567	0.235239	-9.809605	0.187759	-0.002367	0.000399	0.002486
00349	13622617	0.218176	-9.800161	0.177067	-0.001465	0.000820	-0.002416
00350	13622667	0.203749	-9.777878	0.181452	-0.000256	0.003561	0.001125
00351	13622717	0.223974	-9.765862	0.187726	-0.003543	0.000145	0.001753
00352	13622767	0.215532	-9.773911	0.164348	-0.002884	-0.001755	-0.001460
00353	13622817	0.198420	-9.763035	0.168407	-0.005449	-0.000502	-0.001193
00354	13622867	0.223458	-9.790390	0.177946	-0.003117	0.001797	0.000573
00355	13622917	0.194827	-9.789009	0.173354	-0.002154	0.003718	0.000137
00356	13622967	0.202584	-9.775868	0.173475	-0.002896	0.001960	-0.000219
00357	13623017	0.220272	-9.788365	0.182751	-0.005139	0.003153	0.000364
00358	13623067	0.229032	-9.804180	0.200217	-0.002933	0.001798	-0.002055
00359	13623117	0.223843	-9.812409	0.206106	-0.006495	0.003250	-0.003062
00360	13623167	0.209078	-9.800196	0.171811	-0.002953	-0.002491	-0.000344
00361	13623217	0.207940	-9.786803	0.179057	-0.000972	0.002740	0.000095
00362	13623267	0.226584	-9.788359	0.171733	-0.002589	0.002256	-0.001512
00363	13623317	0.219201	-9.767442	0.178760	-0.000938	0.002443	-0.003399
00364	13623367	0.202512	-9.776805	0.203285	-0.002219	0.001388	-0.003783
00365	13623417	0.229188	-9.785248	0.172185	-0.002431	0.001288	-0.001930
00366	13623467	0.224376	-9.792006	0.176230	-0.006095	0.002041	0.002156
00367	13623517	0.225203	-9.764183	0.187710	-0.005687	0.000141	0.001280
00368	13623567	0.237442	-9.799057	0.182125	-0.004602	0.001860	-0.003172
00369	13623617	0.226461	-9.773360	0.199265	-0.002610	0.001934	-0.001029
00370	13623667	0.223042	-9.815900	0.186340	-0.002202	-0.001063	-0.000628
00371	13623717	0.216836	-9.792854	0.194309	-0.003260	0.000980	-0.003047
00372	13623767	0.204077	-9.791440	0.168695	-0.003052	0.002503	-0.002911
00373	13623817	0.193698	-9.786710	0.176854	-0.006814	0.000017	-0.002370
00374	13623867	0.219083	-9.777966	0.184220	-0.003930	0.001969	-0.004164
00375	13623917	0.234832	-9.776473	0.176877	-0.003258	0.003983	-0.004124
00376	13623967	0.208505	-9.768673	0.188567	-0.005169	0.003284	0.002545
00377	13624017	0.199334	-9.760610	0.165535	-0.007385	0.000012	-0.000764
00378	13624067	0.211306	-9.777078	0.197880	-0.005084	-0.000823	-0.000779
00379	13624117	0.207181	-9.762998	0.173280	-0.000309	0.001134	0.000629
00380	13624167	0.222213	-9.798071	0.167125	-0.003438	-0.000273	0.000021
00381	13624217	0.210869	-9.796272	0.195489	-0.002380	0.000681	-0.001517
00382	13624267	0.207188	-9.793706	0.164710	-0.009590	0.003233	0.000474
00383	13624317	0.223428	-9.791521	0.189405	-0.005879	0.001872	-0.001948
00384	13624367	0.200328	-9.779110	0.166488	-0.005781	0.003041	-0.001205
00385	13624417	0.214702	-9.781588	0.153674	-0.006276	0.001483	-0.000023
00386	13624467	0.202501	-9.769567	0.211328	-0.004611	-0.000393	0.000957
00387	13624517	0.215062	-9.774753	0.156780	-0.006711	-0.000042	-0.000449
00388	13624567	0.208851	-9.772063	0.193357	-0.003495	-0.000697	-0.002161
00389	13624617	0.217994	-9.791671	0.179908	-0.001973	0.001982	-0.000066
00390	13624667	0.206396	-9.785933	0.183217	-0.005210	0.000574	0.002918
00391	13624717	0.232174	-9.807793	0.190180	-0.000276	0.000651	-0.002225
00392	13624767	0.213614	-9.793526	0.173678	-0.004387	0.003355	-0.002296
00393	13624817	0.208764	-9.786326	0.195138	-0.000968	0.001740	0.000025
00394	13624867	0.226842	-9.789170	0.178561	-0.006597	-0.000690	-0.002151
00395	13624917	0.210051	-9.782222	0.176132	-0.001544	0.002570	-0.001312
00396	13624967	0.213711	-9.789284	0.175566	-0.003834	0.003303	0.000362
00397	13625017	0.227511	-9.784245	0.167121	-0.005021	0.000982	-0.002434
00398	13625067	0.205790	-9.772701	0.186158	-0.004515	0.001583	-0.000445
00399	13625117	0.234121	-9.797395	0.179255	-0.005779	0.000516	-0.002917
00400	13625167	0.226056	-9.788122	0.186983	-0.006977	0.001175	-0.001467
00401	13625217	0.214129	-9.787303	0.185874	-0.004378	-0.001006	-0.001839
00402	13625267	0.217568	-9.797103	0.177759	-0.003386	0.001308	0.000832
00403	13625317	0.206395	-9.792126	0.200616	-0.002993	0.001056	0.000732
00404	13625367	0.209537	-9.804558	0.193334	-0.004743	0.003442	-0.002551
00405	13625417	0.214637	-9.774924	0.183676	-0.005167	0.001892	0.000170
00406	13625467	0.203855	-9.778802	0.180164	-0.003788	0.000359	-0.003979
00407	13625517	0.206092	-9.783920	0.206054	-0.002941	0.002018	-0.003559
00408	13625567	0.211763	-9.783060	0.201299	-0.001891	0.000335	0.000183
00409	13625617	0.225633	-9.786923	0.169755	-0.003728	0.000557	-0.001701
00410	13625667	0.226814	-9.777562	0.195146	-0.006326	0.002027	-0.002269
00411	13625717	0.214687	-9.783164	0.195220	-0.004464	0.003099	0.001230
00412	13625767	0.212514	-9.774137	0.192344	-0.005130	0.000596	-0.002725
00413	13625817	0.209854	-9.798425	0.196232	-0.002833	0.001933	0.000385
00414	13625867	0.200651	-9.783784	0.177069	-0.004791	0.000793	-0.003880
00415	13625917	0.227974	-9.793055	0.185566	-0.005156	0.001699	0.001156
00416	13625967	0.213942	-9.800023	0.179641	-0.004865	0.003147	-0.004538
00417	13626017	0.211077	-9.787228	0.178271	-0.006045	-0.001904	-0.001644
00418	13626067	0.211162	-9.781397	0.185518	-0.001659	0.001339	0.000313
00419	13626117	0.218388	-9.765953	0.189707	-0.003062	0.001957	-0.001378
00420	13626167	0.207192	-9.805214	0.187831	-0.004570	0.001092	-0.001218
00421	13626217	0.203824	-9.775379	0.204373	-0.004914	-0.002107	-0.000334
00422	13626267	0.208126	-9.788149	0.190220	-0.003760	0.001983	0.000675
00423	13626317	0.217112	-9.787068	0.172983	-0.002358	0.001676	-0.004392
00424	13626367	0.207988	-9.782897	0.187450	-0.001671	0.001068	-0.005680
00425	13626417	0.216295	-9.794329	0.182080	-0.003114	0.000898	0.002177
00426	13626467	0.228107	-9.795193	0.185421	-0.000937	0.001277	-0.003988
00427	13626517	0.206920	-9.784760	0.184414	-0.005891	0.000454	-0.000158
00428	13626567	0.229348	-9.804986	0.175566	-0.002195	0.001877	-0.000421
00429	13626617	0.207606	-9.783279	0.180647	-0.004415	0.002322	-0.000794
00430	13626667	0.216994	-9.805728	0.182794	-0.003164	0.000052	-0.001358
00431	13626717	0.224798	-9.780253	0.167527	-0.007602	-0.000153	0.000161
00432	13626767	0.215397	-9.778561	0.189181	-0.005884	0.001430	0.001159
00433	13626817	0.209243	-9.787550	0.167159	-0.005163	0.001532	-0.001117
00434	13626867	0.187188	-9.779199	0.192702	-0.006194	0.003333	0.002521
00435	13626917	0.212501	-9.802945	0.183168	-0.006785	0.001079	-0.003841
00436	13626967	0.221515	-9.774257	0.191680	-0.002494	0.003419	-0.000858
00437	13627017	0.228029	-9.807854	0.175805	-0.002707	0.004966	-0.002198
00438	13627067	0.220823	-9.800239	0.199290	-0.003922	-0.000021	-0.000040
00439	13627117	0.211274	-9.773735	0.165052	-0.004616	0.002508	-0.002652
00440	13627167	0.225238	-9.808850	0.192056	-0.003745	-0.000799	-0.000494
00441	13627217	0.206125	-9.778233	0.191400	-0.008210	-0.000367	-0.004034
00442	13627267	0.210556	-9.787044	0.181598	-0.002822	-0.001586	0.000332
00443	13627317	0.213382	-9.762758	0.193603	-0.002380	0.001111	0.004194
00444	13627367	0.224753	-9.781574	0.177053	-0.000837	0.001513	0.000601
00445	13627417	0.223000	-9.778700	0.158086	-0.003713	0.000273	-0.000135
00446	13627467	0.212985	-9.781804	0.182020	-0.004957	-0.000685	0.001689
00447	13627517	0.237417	-9.814922	0.164673	-0.003123	0.002927	0.000804
00448	13627567	0.230458	-9.813474	0.188410	-0.005777	0.000483	-0.003239
00449	13627617	0.236355	-9.806186	0.166611	-0.005057	-0.000723	-0.000139
00450	13627667	0.210802	-9.788167	0.177725	-0.006321	0.003067	0.001329
00451	13627717	0.224605	-9.795870	0.196189	-0.004201	-0.000485	-0.000715
00452	13627767	0.225104	-9.768827	0.181315	-0.002290	0.000677	-0.002000
00453	13627817	0.201096	-9.771207	0.193102	-0.004709	0.003408	-0.004025
00454	13627867	0.207387	-9.776540	0.174918	-0.004989	-0.001825	-0.001230
00455	13627917	0.204401	-9.771391	0.176728	-0.005899	0.002912	0.000529
00456	13627967	0.210279	-9.781526	0.192648	-0.003123	0.003760	-0.004153
00457	13628017	0.224815	-9.801835	0.167606	-0.004531	0.000033	0.002173
00458	13628067	0.216293	-9.783403	0.181301	-0.003786	-0.000612	-0.003538
00459	13628117	0.210095	-9.774104	0.188274	-0.004870	-0.000463	-0.000839
00460	13628167	0.205045	-9.800264	0.172818	-0.002294	0.000842	-0.001579
00461	13628217	0.202327	-9.774317	0.179968	-0.003968	0.005428	-0.001836
00462	13628267	0.231430	-9.798191	0.182700	-0.001171	0.000697	-0.002992
00463	13628317	0.217060	-9.783890	0.166676	-0.006092	0.001479	-0.003393
00464	13628367	0.224902	-9.796527	0.192810	-0.003823	0.000650	-0.002118
00465	13628417	0.214571	-9.777715	0.179348	-0.004819	0.003662	-0.004217
00466	13628467	0.208547	-9.783168	0.189932	-0.006852	0.002570	-0.000113
00467	13628517	0.215657	-9.785048	0.179223	-0.002611	0.001571	-0.004905
00468	13628567	0.218951	-9.792868	0.181253	-0.006276	0.001420	-0.000761
00469	13628617	0.226980	-9.776756	0.173588	-0.004397	0.000378	-0.004044
00470	13628667	0.223966	-9.792612	0.184376	-0.005880	0.003298	-0.000369
00471	13628717	0.224064	-9.802366	0.186168	-0.001660	0.001141	-0.000487
00472	13628767	0.218996	-9.794476	0.177961	-0.004025	0.002072	-0.000381
00473	13628817	0.214247	-9.785804	0.196423	-0.005051	-0.002046	-0.001332
00474	13628867	0.236727	-9.800565	0.171299	-0.007912	0.002781	-0.000178
00475	13628917	0.227243	-9.778848	0.186781	-0.004300	-0.003161	0.002988
00476	13628967	0.211831	-9.779553	0.189293	-0.003538	-0.000146	-0.000139
00477	13629017	0.213629	-9.772104	0.184235	-0.002941	0.000380	0.000247
00478	13629067	0.216484	-9.769794	0.175285	-0.006921	0.001962	0.002097
00479	13629117	0.204156	-9.785168	0.162760	-0.001626	0.003345	0.001927
00480	13629167	0.219535	-9.782537	0.189063	-0.008434	0.002056	-0.000495
00481	13629217	0.199726	-9.795580	0.188111	-0.004911	-0.001499	-0.002927
00482	13629267	0.219595	-9.778668	0.168326	-0.007772	-0.000936	-0.002891
00483	13629317	0.210033	-9.787739	0.179959	-0.002974	0.000514	0.002335
00484	13629367	0.207708	-9.782474	0.174960	-0.002425	0.001998	-0.002180
00485	13629417	0.227689	-9.784210	0.180790	-0.001837	-0.000279	-0.000367
00486	13629467	0.205603	-9.772157	0.181346	-0.004331	-0.000484	-0.001033
00487	13629517	0.223017	-9.802684	0.174833	-0.003155	0.002794	-0.002399
00488	13629567	0.225674	-9.795177	0.182670	-0.004335	0.000706	-0.001606
00489	13629617	0.207834	-9.787938	0.206493	-0.005154	-0.001857	-0.003379
00490	13629667	0.220335	-9.795252	0.183711	-0.004242	0.002040	0.001638
00491	13629717	0.222573	-9.802629	0.186864	-0.002258	0.000875	0.000187
00492	13629767	0.214525	-9.788508	0.171798	-0.001463	0.001594	-0.004233
00493	13629817	0.208425	-9.788464	0.194835	-0.001810	0.003818	-0.002909
00494	13629867	0.210858	-9.792936	0.194464	-0.007132	0.003041	-0.003268
00495	13629917	0.223456	-9.786375	0.178810	-0.007866	0.000995	-0.001856
00496	13629967	0.212504	-9.787687	0.178498	-0.002488	0.001865	-0.001799
00497	13630017	0.227965	-9.777782	0.194577	-0.000969	0.000542	-0.000176
00498	13630067	0.216139	-9.779966	0.173454	-0.000641	0.001552	0.002267
00499	13630117	0.203918	-9.759673	0.201241	-0.006650	0.001245	-0.000989
00500	13630167	0.223834	-9.779307	0.182888	-0.007192	0.002008	-0.001496
00501	13630217	0.221870	-9.797985	0.161432	-0.002315	0.003314	-0.004356
00502	13630267	0.232194	-9.805923	0.192321	-0.002428	0.002127	-0.002215
00503	13630317	0.204860	-9.792151	0.185008	-0.004070	0.001358	-0.000868
00504	13630367	0.212890	-9.789225	0.186539	-0.007107	-0.001761	0.000727
00505	13630417	0.230731	-9.772125	0.184363	-0.004227	0.000583	0.002012
00506	13630467	0.205968	-9.762238	0.169132	-0.005447	0.001755	0.001387
00507	13630517	0.225108	-9.792128	0.184582	-0.005683	-0.001223	0.000306
00508	13630567	0.220430	-9.773942	0.170560	-0.004225	0.000291	0.000696
00509	13630617	0.211574	-9.762165	0.184668	-0.004150	0.001295	0.002403
00510	13630667	0.225189	-9.789707	0.181285	-0.005361	-0.003642	-0.003619
00511	13630717	0.218770	-9.793035	0.176824	-0.001425	-0.001379	-0.001689
00512	13630767	0.212977	-9.792653	0.177729	-0.003145	-0.001469	0.000497
00513	13630817	0.224313	-9.802962	0.179084	-0.005545	0.001784	0.001479
00514	13630867	0.227325	-9.800686	0.203071	-0.005319	0.000330	-0.002792
00515	13630917	0.225509	-9.791942	0.172658	-0.003868	0.001871	-0.003622
00516	13630967	0.231794	-9.786530	0.180562	-0.002612	-0.000460	-0.002037
00517	13631017	0.213371	-9.786500	0.195050	-0.001907	0.002714	-0.002949
00518	13631067	0.221394	-9.782422	0.198435	-0.000098	-0.001003	-0.002459
00519	13631117	0.218736	-9.780579	0.184649	-0.006244	-0.000551	0.000091
00520	13631167	0.214819	-9.787075	0.187366	-0.002161	-0.002552	-0.002240
00521	13631217	0.240758	-9.777823	0.177114	-0.003489	0.001167	-0.001869
00522	13631267	0.206559	-9.782108	0.166082	-0.001656	0.000850	-0.001033
00523	13631317	0.223210	-9.798212	0.192989	-0.005045	0.002116	-0.000060
00524	13631367	0.226068	-9.781160	0.197301	-0.005220	-0.000761	-0.000938
00525	13631417	0.224163	-9.792226	0.190510	-0.009141	0.003072	-0.000683
00526	13631467	0.236584	-9.798824	0.197310	-0.002104	0.001936	-0.001897
00527	13631517	0.214582	-9.776243	0.192384	-0.003742	0.001429	0.000381
00528	13631567	0.221615	-9.772833	0.176745	-0.005148	-0.000894	-0.001584
00529	13631617	0.224073	-9.787576	0.196120	-0.004835	0.001210	-0.002215
00530	13631667	0.202067	-9.768248	0.171041	-0.005840	0.000843	0.000193
00531	13631717	0.210451	-9.779390	0.192755	0.001754	0.001229	-0.003287
00532	13631767	0.213807	-9.789229	0.202802	-0.007233	0.001398	-0.000762
00533	13631817	0.231855	-9.796311	0.184102	-0.003847	0.000327	-0.000682
00534	13631867	0.206587	-9.781485	0.171603	-0.003601	0.003649	-0.004030
00535	13631917	0.229904	-9.776196	0.154942	-0.002235	0.000804	-0.003314
00536	13631967	0.211993	-9.783103	0.203921	-0.002535	0.000507	-0.000845
00537	13632017	0.230641	-9.824332	0.138852	-0.003783	0.002391	-0.001602
00538	13632067	0.222198	-9.788160	0.217474	-0.005115	0.001243	0.000287
00539	13632117	0.205005	-9.780279	0.184152	-0.008675	0.001335	-0.002364
00540	13632167	0.211038	-9.787344	0.170745	-0.004698	0.000186	0.001915
00541	13632217	0.239211	-9.785694	0.209510	-0.002827	0.003538	-0.001919
00542	13632267	0.219019	-9.778030	0.157632	-0.002945	0.000818	-0.005484
00543	13632317	0.226968	-9.786442	0.186061	-0.004727	0.000926	-0.000355
00544	13632367	0.241616	-9.811154	0.169623	-0.006325	0.002028	0.001093
00545	13632417	0.210871	-9.773962	0.179949	-0.001824	-0.001732	-0.000153
00546	13632467	0.219032	-9.785828	0.186772	-0.006603	-0.000333	0.000985
00547	13632517	0.221089	-9.778285	0.160149	-0.007289	0.001939	-0.002752
00548	13632567	0.206054	-9.790203	0.183074	-0.004062	0.002293	-0.000767
00549	13632617	0.211482	-9.780913	0.169128	-0.005330	0.001884	0.000418
00550	13632667	0.229878	-9.774516	0.184830	-0.004870	-0.000496	0.000694
00551	13632717	0.221183	-9.769258	0.190722	-0.001470	-0.000757	0.001006
00552	13632767	0.219749	-9.793611	0.168296	-0.005424	0.001786	-0.000446
00553	13632817	0.222306	-9.781008	0.199832	-0.001777	0.000652	-0.002030
00554	13632867	0.208683	-9.780694	0.199294	-0.004835	0.000440	-0.000388
00555	13632917	0.220661	-9.777548	0.189447	-0.004610	0.004348	-0.001682
00556	13632967	0.223198	-9.796929	0.186562	-0.003441	0.000854	0.000506
00557	13633017	0.221173	-9.795300	0.171672	-0.006194	0.000869	-0.000416
00558	13633067	0.215938	-9.783771	0.189223	-0.004534	-0.000010	-0.000682
00559	13633117	0.224077	-9.784979	0.181776	-0.003007	0.002309	-0.000317
00560	13633167	0.220404	-9.808822	0.186533	-0.004911	0.001500	-0.003301
00561	13633217	0.215687	-9.791474	0.180805	-0.007527	0.005519	-0.002374
00562	13633267	0.223517	-9.792613	0.168125	-0.002598	0.000384	-0.000204
00563	13633317	0.224358	-9.777412	0.168056	-0.005948	0.000899	-0.002433
00564	13633367	0.218047	-9.796403	0.178931	-0.003193	-0.001149	-0.001558
00565	13633417	0.227277	-9.789652	0.194933	-0.004126	-0.001136	-0.003155
00566	13633467	0.222454	-9.804506	0.169826	-0.004767	0.002284	-0.000188
00567	13633517	0.216732	-9.777554	0.170450	-0.004058	0.002967	-0.003036
00568	13633567	0.223187	-9.791785	0.176260	-0.003886	0.000814	0.001853
00569	13633617	0.209042	-9.775476	0.183777	-0.003435	0.000294	-0.004112
00570	13633667	0.220152	-9.785864	0.159045	-0.003608	-0.001926	0.001966
00571	13633717	0.204147	-9.777638	0.166141	0.001401	0.003257	-0.002795
00572	13633767	0.199866	-9.769106	0.178385	-0.009125	-0.000311	0.001062
00573	13633817	0.206365	-9.777823	0.180172	-0.005078	0.000986	-0.000192
00574	13633867	0.225489	-9.787609	0.184424	-0.003117	0.000058	0.003642
00575	13633917	0.224422	-9.792414	0.186965	-0.006833	0.000691	-0.002469
00576	13633967	0.218918	-9.787569	0.175754	-0.006560	-0.004048	-0.001403
00577	13634017	0.214696	-9.780412	0.185578	-0.007884	0.000776	0.000451
00578	13634067	0.216001	-9.790760	0.196219	-0.001942	0.002973	-0.001055
00579	13634117	0.205841	-9.777243	0.172723	-0.006185	0.000774	0.001731
00580	13634167	0.217176	-9.782634	0.177738	-0.002405	0.000250	-0.001419
00581	13634217	0.217129	-9.797848	0.179677	-0.002704	0.003935	0.000807
00582	13634267	0.216566	-9.785577	0.168143	-0.003323	0.001113	0.000573
00583	13634317	0.205401	-9.799673	0.181130	-0.003298	0.006735	0.001530
00584	13634367	0.191632	-9.778431	0.176538	-0.007037	0.001308	0.000903
00585	13634417	0.231896	-9.779838	0.177628	-0.005315	0.003529	0.000462
00586	13634467	0.217425	-9.776450	0.176689	-0.007524	0.002325	-0.002644
00587	13634517	0.206667	-9.773834	0.199188	-0.003190	-0.001851	0.001262
00588	13634567	0.219726	-9.792298	0.191637	-0.002744	0.002422	0.003560
00589	13634617	0.217487	-9.783314	0.207480	-0.004532	-0.001138	0.000624
00590	13634667	0.227420	-9.785127	0.178320	-0.007229	0.000203	-0.000576
00591	13634717	0.222812	-9.774757	0.178852	-0.004259	0.000124	-0.001934
00592	13634767	0.218395	-9.802246	0.173712	-0.003427	0.003397	-0.001019
00593	13634817	0.204112	-9.798162	0.174009	-0.000709	0.005387	-0.001652
00594	13634867	0.190719	-9.768425	0.188599	-0.006397	0.001250	-0.000217
00595	13634917	0.222207	-9.768540	0.175794	-0.004585	0.002773	0.000551
00596	13634967	0.212889	-9.767268	0.177868	-0.006571	0.002865	0.000975
00597	13635017	0.198435	-9.771276	0.194944	-0.009383	0.002486	-0.002702
00598	13635067	0.219051	-9.778488	0.171918	-0.004575	0.002251	-0.001372
00599	13635117	0.222447	-9.796841	0.196138	-0.005286	-0.001539	0.000149
00600	13635167	0.197876	-9.779303	0.176614	-0.004576	0.001149	-0.003171
00601	13635217	0.219410	-9.792080	0.176924	-0.006097	0.000837	0.000477
00602	13635267	0.204583	-9.767245	0.185242	-0.005498	-0.001059	-0.000649
00603	13635317	0.222225	-9.796612	0.165239	-0.004991	0.000047	-0.002126
00604	13635367	0.222191	-9.787017	0.173388	-0.003462	0.000498	0.000310
00605	13635417	0.218722	-9.778913	0.184128	-0.005203	-0.000020	0.001438
00606	13635467	0.231607	-9.797626	0.161229	-0.007720	-0.000747	-0.002793
00607	13635517	0.221518	-9.784918	0.190929	-0.002520	0.000761	-0.004208
00608	13635567	0.227988	-9.776382	0.165683	-0.003747	0.001031	-0.003627
00609	13635617	0.217486	-9.778909	0.167179	-0.003961	0.000937	-0.001769
00610	13635667	0.227918	-9.784224	0.181718	-0.004518	0.001382	-0.000803
00611	13635717	0.218563	-9.787165	0.164509	-0.005684	0.001612	-0.003327
00612	13635767	0.205109	-9.785409	0.178753	-0.002533	-0.001784	-0.002074
00613	13635817	0.214641	-9.782527	0.168725	-0.001154	-0.001021	-0.002524
00614	13635867	0.221297	-9.783373	0.182829	-0.001296	0.001395	-0.004369
00615	13635917	0.223720	-9.792788	0.180065	-0.005875	0.000811	0.000352
00616	13635967	0.218394	-9.779033	0.175994	-0.006542	0.004763	-0.002252
00617	13636017	0.207710	-9.778540	0.196899	-0.005965	-0.000420	-0.000103
00618	13636067	0.206723	-9.775135	0.175425	-0.002500	0.001184	-0.004046
00619	13636117	0.218305	-9.782315	0.188742	-0.003473	0.001886	-0.000864
00620	13636167	0.228400	-9.788470	0.180995	-0.004459	-0.000331	0.001110
00621	13636217	0.214069	-9.781870	0.171810	-0.001433	0.000144	0.001040
00622	13636267	0.208902	-9.784439	0.180935	-0.003167	0.000917	-0.002731
00623	13636317	0.227787	-9.786720	0.173798	-0.004534	-0.001301	-0.002038
00624	13636367	0.213635	-9.788389	0.194477	-0.007247	0.001685	-0.001530
00625	13636417	0.203949	-9.798086	0.184554	-0.000956	0.001251	0.001430
00626	13636467	0.216462	-9.800909	0.177510	-0.003236	0.001303	-0.001863
00627	13636517	0.224851	-9.792937	0.190199	-0.001445	0.002402	-0.000647
00628	13636567	0.216800	-9.774860	0.165241	-0.006276	0.001150	-0.004357
00629	13636617	0.220631	-9.780706	0.194217	-0.005857	0.003423	-0.000341
00630	13636667	0.215110	-9.773488	0.183006	-0.002721	0.002381	-0.000673
00631	13636717	0.211881	-9.793632	0.179158	-0.005598	-0.000830	0.000083
00632	13636767	0.218836	-9.776518	0.167043	-0.000411	0.002098	-0.000586
00633	13636817	0.200261	-9.770816	0.167045	-0.001930	0.001457	-0.002573
00634	13636867	0.221316	-9.776510	0.199490	-0.005633	0.002164	-0.003680
00635	13636917	0.225682	-9.777045	0.144883	-0.003910	0.001328	-0.001636
00636	13636967	0.210429	-9.773297	0.182132	-0.000239	-0.001489	-0.001980
00637	13637017	0.195630	-9.795786	0.182360	-0.004469	-0.000132	-0.000235
00638	13637067	0.208960	-9.787126	0.170107	-0.006454	-0.001046	-0.000553
00639	13637117	0.228643	-9.793461	0.197029	-0.006046	0.004092	-0.002452
00640	13637167	0.214732	-9.810713	0.165887	-0.001230	0.000633	-0.000846
00641	13637217	0.226335	-9.795852	0.180741	-0.004883	-0.001336	-0.000112
00642	13637267	0.234611	-9.791212	0.194432	-0.005022	0.000042	-0.001518
00643	13637317	0.219484	-9.762857	0.204811	-0.005452	0.001420	-0.004265
00644	13637367	0.224800	-9.787078	0.195462	-0.003225	0.001784	-0.003590
00645	13637417	0.228119	-9.792459	0.161824	-0.007628	0.000548	-0.000896
00646	13637467	0.232912	-9.785173	0.185740	-0.006548	0.002925	-0.001559
00647	13637517	0.207223	-9.781468	0.171073	-0.005745	-0.000355	-0.001224
00648	13637567	0.205228	-9.770909	0.192974	0.000035	0.000235	0.000557
00649	13637617	0.207730	-9.753761	0.189991	-0.003888	-0.003421	-0.001566
00650	13637667	0.204608	-9.790211	0.182108	-0.005218	-0.001860	-0.001391
00651	13637717	0.229843	-9.795290	0.162492	-0.006756	0.001340	-0.000864
00652	13637767	0.222452	-9.790668	0.180248	-0.006897	0.001924	0.001673
00653	13637817	0.228317	-9.776567	0.177938	-0.002974	0.002314	-0.000160
00654	13637867	0.211638	-9.792191	0.177699	-0.006809	0.002950	-0.001397
00655	13637917	0.211955	-9.789314	0.191187	-0.003277	-0.000504	-0.000431
00656	13637967	0.200477	-9.770298	0.195060	-0.005284	0.000465	0.000128
00657	13638017	0.224577	-9.789527	0.184296	-0.007728	0.001872	0.000298
00658	13638067	0.212873	-9.782724	0.180182	-0.002573	-0.002590	-0.000828
00659	13638117	0.212120	-9.761321	0.191369	-0.003904	0.001097	-0.002568
00660	13638167	0.227983	-9.790152	0.181469	-0.004295	0.002483	-0.000834
00661	13638217	0.232529	-9.789455	0.185725	-0.007691	0.000448	-0.002789
00662	13638267	0.238614	-9.793760	0.178340	-0.002924	-0.000631	-0.002807
00663	13638317	0.223303	-9.782833	0.195744	-0.003081	0.002467	-0.001285
00664	13638367	0.211285	-9.768197	0.175358	-0.004277	-0.001106	-0.000876
00665	13638417	0.211675	-9.767548	0.179940	-0.002646	0.001127	0.001819
00666	13638467	0.225862	-9.794208	0.196453	-0.001914	0.000900	-0.003186
00667	13638517	0.226461	-9.799166	0.180329	-0.001598	0.005303	-0.000180
00668	13638567	0.225877	-9.788273	0.180988	-0.005700	-0.000840	-0.002640
00669	13638617	0.206929	-9.779297	0.168859	-0.005498	0.005434	0.001306
00670	13638667	0.224047	-9.773591	0.181248	-0.005675	0.005546	-0.004592
00671	13638717	0.221395	-9.787570	0.162558	-0.006177	0.002188	-0.002330
00672	13638767	0.218419	-9.772550	0.171463	-0.003844	-0.000344	0.002874
00673	13638817	0.213592	-9.776147	0.184862	-0.007683	0.001091	-0.004288
00674	13638867	0.228581	-9.787094	0.183706	-0.000995	0.002509	0.000536
00675	13638917	0.205009	-9.780645	0.177038	-0.003168	0.002275	-0.000126
00676	13638967	0.212753	-9.793736	0.186140	-0.004008	0.001417	-0.001890
00677	13639017	0.204639	-9.791523	0.190243	-0.004716	-0.001729	-0.004248
00678	13639067	0.223652	-9.793170	0.174164	-0.001984	0.000659	0.003580
00679	13639117	0.211412	-9.788052	0.170768	-0.005633	0.002263	-0.002590
00680	13639167	0.213060	-9.779783	0.189902	-0.006469	0.002279	-0.002297
00681	13639217	0.191990	-9.774243	0.182853	-0.006592	0.001509	0.001579
00682	13639267	0.206852	-9.771707	0.184012	-0.002994	0.002595	-0.003907
00683	13639317	0.222881	-9.784805	0.184601	-0.003598	0.001754	-0.000096
00684	13639367	0.222713	-9.774581	0.167613	-0.004876	0.003466	-0.003293
00685	13639417	0.204389	-9.776498	0.185197	-0.004651	0.002834	0.001642
00686	13639467	0.219838	-9.796782	0.189933	-0.004026	0.001233	0.001504
00687	13639517	0.225501	-9.759212	0.173156	-0.001276	0.001078	-0.002029
00688	13639567	0.226292	-9.793227	0.180062	-0.005938	-0.000127	0.001626
00689	13639617	0.225665	-9.776440	0.182433	-0.005591	0.000972	-0.001475
00690	13639667	0.207596	-9.768642	0.170044	-0.004764	0.000951	-0.002757
00691	13639717	0.219076	-9.779409	0.169863	-0.003503	0.001718	-0.000800
00692	13639767	0.204868	-9.774604	0.185663	-0.003912	0.000717	0.002174
00693	13639817	0.207108	-9.772717	0.203889	-0.005486	-0.002281	0.000975
00694	13639867	0.232868	-9.800663	0.174750	-0.005127	-0.000342	0.000919
00695	13639917	0.210924	-9.782482	0.193499	-0.008961	0.000200	-0.002404
00696	13639967	0.237470	-9.805126	0.191298	-0.004205	0.000377	-0.002933
00697	13640017	0.225816	-9.793129	0.188174	-0.004523	0.001572	-0.002505
00698	13640067	0.214063	-9.773497	0.182706	-0.003020	0.002124	0.004452
00699	13640117	0.230307	-9.783216	0.179710	-0.009203	0.001876	-0.001400
00700	13640167	0.228386	-9.786737	0.176017	-0.003194	0.000115	0.001457
00701	13640217	0.211690	-9.778227	0.179691	-0.002075	0.000932	-0.002290
00702	13640267	0.214092	-9.780293	0.176734	-0.006667	0.000597	-0.002124
00703	13640317	0.211581	-9.770868	0.179701	-0.002715	0.001215	0.000537
00704	13640367	0.222688	-9.786204	0.182783	-0.004296	0.000281	-0.003503
00705	13640417	0.230358	-9.792254	0.181523	-0.003383	-0.000056	-0.000688
00706	13640467	0.216066	-9.782800	0.171911	-0.006040	0.001960	-0.001764
00707	13640517	0.227037	-9.780788	0.204465	-0.006187	0.002702	-0.000762
00708	13640567	0.209002	-9.778212	0.192394	-0.003542	0.000778	-0.001935
00709	13640617	0.217285	-9.784082	0.164352	-0.003353	0.000206	0.000403
00710	13640667	0.215038	-9.790243	0.161655	-0.005106	-0.000411	-0.002899
00711	13640717	0.226059	-9.798804	0.172077	-0.006659	0.000668	0.003844
00712	13640767	0.206485	-9.773035	0.161949	-0.004325	0.000448	0.000376
00713	13640817	0.208897	-9.773477	0.192627	-0.002727	0.002444	-0.000899
00714	13640867	0.214771	-9.776746	0.178447	-0.004618	0.001472	-0.001162
00715	13640917	0.229830	-9.785732	0.188968	-0.001900	0.000516	-0.003000
00716	13640967	0.222254	-9.780972	0.181256	-0.003376	0.000422	-0.004952
00717	13641017	0.207128	-9.792187	0.173745	-0.004064	0.002027	-0.003754
00718	13641067	0.213125	-9.785238	0.189709	-0.003922	0.001678	-0.002246
00719	13641117	0.236147	-9.804114	0.201810	-0.005933	0.001708	-0.001062
00720	13641167	0.210769	-9.776213	0.171587	-0.001650	0.003819	-0.001889
00721	13641217	0.219312	-9.781389	0.175567	-0.002619	-0.000008	-0.001143
00722	13641267	0.223156	-9.791101	0.193040	-0.003452	0.003073	-0.002466
00723	13641317	0.214611	-9.777344	0.171035	-0.004090	0.003027	-0.002596
00724	13641367	0.227829	-9.791059	0.178879	-0.004558	0.003565	-0.002814
00725	13641417	0.205112	-9.786140	0.164870	-0.003959	-0.002261	-0.001402
00726	13641467	0.218311	-9.796661	0.179962	-0.007970	0.004447	-0.001775
00727	13641517	0.202937	-9.775659	0.160057	-0.005317	-0.001574	-0.000119
00728	13641567	0.234718	-9.790480	0.177661	-0.003177	0.000203	-0.002131
00729	13641617	0.247592	-9.777361	0.183367	-0.003361	-0.000866	-0.002492
00730	13641667	0.228471	-9.777670	0.188155	-0.006808	0.002178	0.000069
00731	13641717	0.192466	-9.757543	0.192260	-0.002393	0.002223	0.000285
00732	13641767	0.235277	-9.779137	0.180737	-0.006008	0.002960	-0.002332
00733	13641817	0.214229	-9.773985	0.183516	-0.002737	0.001629	-0.002860
00734	13641867	0.239657	-9.786432	0.180697	-0.005900	0.002576	-0.002979
00735	13641917	0.210107	-9.784762	0.171534	-0.003704	-0.004165	-0.001223
00736	13641967	0.226253	-9.775497	0.183739	-0.001990	-0.000943	-0.004576
00737	13642017	0.207263	-9.754404	0.185628	-0.005570	-0.002645	0.000521
00738	13642067	0.227122	-9.794570	0.159476	-0.002659	0.002514	0.001245
00739	13642117	0.218513	-9.794349	0.184373	-0.005846	0.001903	-0.002019
00740	13642167	0.215203	-9.789805	0.164307	-0.004044	0.000741	0.000058
00741	13642217	0.202000	-9.778934	0.171288	-0.004307	0.002897	-0.001695
00742	13642267	0.221169	-9.791685	0.183270	-0.003771	-0.000232	-0.003736
00743	13642317	0.234697	-9.778542	0.187932	-0.005258	0.001690	-0.000546
00744	13642367	0.209245	-9.780532	0.173617	-0.005708	-0.000154	0.002842
00745	13642417	0.220504	-9.770144	0.185379	-0.004198	0.004773	0.000076
00746	13642467	0.212767	-9.769197	0.179635	-0.005367	0.002974	-0.002270
00747	13642517	0.227977	-9.783656	0.175719	-0.006828	0.004758	-0.002034
00748	13642567	0.226116	-9.786863	0.167088	-0.005975	0.000834	-0.002216
00749	13642617	0.219363	-9.785357	0.187099	-0.004838	0.000171	-0.003055
00750	13642667	0.230136	-9.806025	0.166597	-0.004128	0.001387	0.000277
00751	13642717	0.209977	-9.775658	0.180652	-0.003034	0.001946	-0.003436
00752	13642767	0.224365	-9.788503	0.179590	-0.003456	0.003301	-0.001310
00753	13642817	0.214854	-9.774112	0.192563	-0.004938	0.001431	-0.003111
00754	13642867	0.230540	-9.775558	0.190973	-0.007456	0.001423	0.000034
00755	13642917	0.204478	-9.770906	0.176052	-0.006449	-0.001176	-0.001393
00756	13642967	0.197859	-9.781640	0.174746	-0.000609	0.000317	-0.000690
00757	13643017	0.216212	-9.792895	0.165425	-0.007351	-0.002227	-0.001554
00758	13643067	0.207133	-9.761565	0.188074	-0.004361	0.002508	-0.001761
00759	13643117	0.206460	-9.778666	0.188639	-0.002056	0.001255	-0.003922
00760	13643167	0.212695	-9.775364	0.164132	-0.003581	0.002133	-0.001766
00761	13643217	0.211333	-9.785231	0.171761	-0.004880	0.002857	-0.001695
00762	13643267	0.220686	-9.802013	0.191132	-0.004297	0.002575	-0.001381
00763	13643317	0.199003	-9.768001	0.167783	-0.003058	0.000463	-0.002509
00764	13643367	0.217619	-9.793795	0.178585	-0.007609	-0.001331	-0.004436
00765	13643417	0.224060	-9.783309	0.196834	0.001094	0.001924	-0.003669
00766	13643467	0.222322	-9.793522	0.164774	-0.002614	0.000095	0.001361
00767	13643517	0.226840	-9.780209	0.197523	-0.006785	0.002171	-0.001822
00768	13643567	0.204859	-9.780219	0.164715	0.000395	0.001915	-0.001519
00769	13643617	0.213947	-9.776422	0.187695	0.000536	0.001401	-0.001012
00770	13643667	0.204633	-9.766178	0.208462	-0.004950	0.002051	-0.000770
00771	13643717	0.214152	-9.776492	0.146429	-0.002870	0.002220	0.001756
00772	13643767	0.216098	-9.773160	0.224258	-0.003699	0.000710	-0.002863
00773	13643817	0.221930	-9.790282	0.154765	-0.001430	0.004083	0.001539
00774	13643867	0.198907	-9.790906	0.191954	-0.005890	0.002518	-0.001021
00775	13643917	0.207158	-9.772463	0.170930	-0.008033	0.001180	-0.003232
00776	13643967	0.219209	-9.769992	0.159740	-0.004264	0.001644	-0.000007
00777	13644017	0.213351	-9.775704	0.202444	-0.004283	0.000124	0.000209
00778	13644067	0.210438	-9.787308	0.167654	-0.005025	0.000074	-0.002447
00779	13644117	0.216342	-9.771015	0.177236	-0.003683	-0.000706	-0.000463
00780	13644167	0.210350	-9.794256	0.187697	-0.007913	-0.002588	-0.000496
00781	13644217	0.217091	-9.795779	0.184175	-0.003824	0.000581	-0.002449
00782	13644267	0.235662	-9.799770	0.196111	-0.004219	0.000863	-0.002992
00783	13644317	0.219364	-9.779097	0.165266	-0.002444	0.002804	0.000159
00784	13644367	0.226465	-9.799537	0.173461	-0.007427	0.001356	-0.000417
00785	13644417	0.207411	-9.772023	0.189994	-0.005893	-0.002357	0.002349
00786	13644467	0.219894	-9.784106	0.183314	-0.001416	0.001264	-0.003094
00787	13644517	0.215034	-9.773177	0.193502	-0.005575	0.000553	0.000859
00788	13644567	0.210193	-9.780084	0.191319	-0.009803	-0.000428	-0.001378
00789	13644617	0.226826	-9.804452	0.185368	-0.003791	0.001074	0.003132
00790	13644667	0.226892	-9.778218	0.176598	0.000899	0.000446	0.001898
00791	13644717	0.218724	-9.775598	0.184131	-0.004780	-0.002403	-0.000060
00792	13644767	0.209318	-9.783987	0.197666	-0.003926	0.000734	-0.004754
00793	13644817	0.224524	-9.806618	0.184714	-0.001466	0.003112	-0.000259
00794	13644867	0.207547	-9.783011	0.179188	-0.004639	0.001579	0.003233
00795	13644917	0.220713	-9.790458	0.164792	-0.004438	0.000860	-0.000586
00796	13644967	0.211171	-9.787689	0.192836	-0.001568	0.000334	-0.000881
00797	13645017	0.216601	-9.796131	0.191143	-0.003508	-0.000352	-0.003060
00798	13645067	0.219288	-9.773939	0.184692	-0.000381	0.000829	-0.005212
00799	13645117	0.221432	-9.776667	0.163296	-0.006084	0.001451	0.000510
00800	13645167	0.219589	-9.782999	0.172645	-0.004549	0.002344	-0.002433
00801	13645217	0.202705	-9.769846	0.183071	-0.003295	-0.000796	-0.000823
00802	13645267	0.215725	-9.779687	0.185137	-0.007410	-0.002164	-0.001269
00803	13645317	0.226739	-9.785141	0.178712	-0.002017	0.001360	0.000945
00804	13645367	0.227840	-9.790899	0.167631	-0.001838	0.002781	-0.000263
00805	13645417	0.217605	-9.798994	0.177365	-0.006100	0.001062	0.000034
00806	13645467	0.203340	-9.780404	0.176065	-0.004911	0.000598	-0.001036
00807	13645517	0.206083	-9.783484	0.208684	-0.004323	0.002412	-0.001410
00808	13645567	0.215642	-9.787776	0.171505	-0.004718	-0.000497	-0.000783
00809	13645617	0.223500	-9.767577	0.175377	-0.000120	0.002807	-0.003536
00810	13645667	0.230106	-9.791811	0.183190	-0.003307	0.003725	-0.000829
00811	13645717	0.218901	-9.787948	0.185205	-0.003054	0.001626	-0.002702
00812	13645767	0.240285	-9.790524	0.169678	-0.005238	0.002715	-0.003105
00813	13645817	0.213205	-9.790743	0.177461	-0.005873	0.000937	0.000925
00814	13645867	0.226483	-9.782801	0.181041	-0.003504	0.002686	-0.001475
00815	13645917	0.220675	-9.778938	0.172014	-0.003154	0.000148	0.002358
00816	13645967	0.216569	-9.801874	0.194187	-0.007272	0.001656	-0.000125
00817	13646017	0.220352	-9.787809	0.177237	-0.004439	0.002057	-0.000580
00818	13646067	0.223189	-9.786386	0.179428	-0.001015	-0.000272	-0.001179
00819	13646117	0.235301	-9.801064	0.187486	-0.002737	-0.000533	-0.003355
00820	13646167	0.220971	-9.796009	0.171543	-0.002014	0.000128	-0.000373
00821	13646217	0.218737	-9.786372	0.175133	-0.001673	0.002456	-0.002252
00822	13646267	0.235046	-9.780463	0.174520	-0.004669	0.001214	-0.001289
00823	13646317	0.205592	-9.781870	0.164988	-0.006448	0.003730	-0.002230
00824	13646367	0.218952	-9.787657	0.197807	-0.004869	0.001765	0.002527
00825	13646417	0.222455	-9.789049	0.167172	-0.003337	0.003097	-0.006603
00826	13646467	0.224341	-9.787207	0.187731	-0.005731	-0.001904	-0.002072
00827	13646517	0.221611	-9.791916	0.167824	-0.007499	-0.002319	0.001233
00828	13646567	0.229594	-9.785178	0.183410	-0.003679	-0.001033	-0.002109
00829	13646617	0.207685	-9.774745	0.196762	-0.002154	-0.001524	-0.000221
00830	13646667	0.216759	-9.783314	0.175278	-0.003905	0.000290	-0.001201
00831	13646717	0.232193	-9.782153	0.174231	-0.005938	0.001738	-0.001317
00832	13646767	0.228673	-9.778721	0.164030	-0.003795	0.001841	-0.001094
00833	13646817	0.224383	-9.781595	0.177669	-0.004552	0.001244	-0.002920
00834	13646867	0.222090	-9.792134	0.166920	-0.002611	0.002094	0.000954
00835	13646917	0.222552	-9.790483	0.167842	-0.004916	-0.000083	0.001042
00836	13646967	0.205983	-9.761934	0.179732	-0.002623	0.001248	-0.002030
00837	13647017	0.211406	-9.786391	0.185925	-0.003553	0.000659	0.002104
00838	13647067	0.237773	-9.787874	0.180120	-0.001160	-0.002860	-0.002313
00839	13647117	0.209834	-9.779181	0.178521	-0.002214	0.002255	-0.002857
00840	13647167	0.231962	-9.780519	0.191050	-0.005641	0.001944	0.002308
00841	13647217	0.240721	-9.796976	0.173031	-0.003541	-0.002125	0.000420
00842	13647267	0.214557	-9.779459	0.185098	-0.008077	0.000405	-0.003461
00843	13647317	0.217519	-9.780987	0.194441	-0.004310	0.001121	-0.000229
00844	13647367	0.241166	-9.784397	0.157931	-0.005938	0.002834	-0.000480
00845	13647417	0.222517	-9.775094	0.185542	-0.006420	0.000826	-0.001670
00846	13647467	0.205506	-9.769492	0.193101	-0.005262	-0.002378	-0.000795
00847	13647517	0.223705	-9.807330	0.184642	-0.003818	0.000417	-0.002996
00848	13647567	0.210903	-9.797420	0.177799	-0.003768	0.000908	-0.001710
00849	13647617	0.206400	-9.779079	0.153435	-0.008365	0.001402	-0.003840
00850	13647667	0.214151	-9.792670	0.149379	-0.006511	0.001663	-0.002116
00851	13647717	0.204936	-9.779746	0.196275	-0.002980	0.002438	-0.001029
00852	13647767	0.210877	-9.787392	0.188688	-0.007755	0.000244	-0.006477
00853	13647817	0.216656	-9.786326	0.170765	-0.004300	-0.001855	-0.005312
00854	13647867	0.194676	-9.770810	0.177631	-0.004239	0.000709	0.000023
00855	13647917	0.218307	-9.773617	0.179012	-0.001916	0.002166	-0.000809
00856	13647967	0.208453	-9.774901	0.192902	-0.003795	0.000745	-0.002223
00857	13648017	0.223048	-9.782609	0.149636	-0.004444	-0.003105	0.000001
00858	13648067	0.220476	-9.782446	0.183445	-0.003024	0.001859	-0.000422
00859	13648117	0.208078	-9.780220	0.183546	-0.003229	0.003175	-0.000772
00860	13648167	0.227711	-9.782008	0.176818	-0.000393	0.001613	0.000238
00861	13648217	0.219553	-9.786817	0.189438	-0.003625	0.000650	0.000053
00862	13648267	0.202547	-9.778843	0.181635	-0.002959	-0.000077	0.001136
00863	13648317	0.206176	-9.767504	0.172052	-0.001018	0.000756	-0.004249
00864	13648367	0.219127	-9.785800	0.184729	-0.002097	-0.001489	-0.002754
00865	13648417	0.212936	-9.786080	0.182265	-0.004750	0.002629	-0.003140
00866	13648467	0.232552	-9.791168	0.174663	-0.001160	0.002664	0.000536
00867	13648517	0.210842	-9.781375	0.167982	-0.003401	0.003491	-0.002307
00868	13648567	0.232045	-9.775340	0.193518	-0.003142	0.000266	-0.002419
00869	13648617	0.205286	-9.773373	0.183258	-0.004284	0.001188	-0.000676
00870	13648667	0.241000	-9.801852	0.182188	-0.004404	0.000960	0.000565
00871	13648717	0.213821	-9.780766	0.176745	-0.005327	-0.001510	-0.001846
00872	13648767	0.211543	-9.785283	0.175895	-0.003445	0.000913	-0.001902
00873	13648817	0.213975	-9.789189	0.184975	-0.001898	0.001289	-0.003251
00874	13648867	0.222295	-9.790487	0.183473	-0.004077	0.002547	-0.002375
00875	13648917	0.214882	-9.785589	0.182696	-0.005741	-0.000586	-0.002835
00876	13648967	0.213217	-9.774737	0.185675	-0.003251	0.002047	0.000286
00877	13649017	0.224103	-9.776880	0.179345	-0.003898	0.002965	-0.004228
00878	13649067	0.246059	-9.803699	0.182344	-0.004892	0.001849	-0.004074
00879	13649117	0.236686	-9.795849	0.173553	-0.003779	-0.000873	-0.001305
00880	13649167	0.234974	-9.790509	0.179629	-0.002211	-0.001071	-0.003967
00881	13649217	0.210375	-9.781940	0.204117	-0.003839	0.000095	-0.002353
00882	13649267	0.225759	-9.789218	0.181109	-0.001924	0.000396	0.001872
00883	13649317	0.220598	-9.788356	0.182238	-0.003566	-0.000580	-0.002486
00884	13649367	0.207961	-9.781292	0.175693	-0.002795	0.002566	-0.002891
00885	13649417	0.222342	-9.806679	0.203163	-0.003009	0.001273	-0.001068
00886	13649467	0.230048	-9.801982	0.181229	-0.005326	-0.000475	-0.001937
00887	13649517	0.225674	-9.794830	0.176019	-0.002553	-0.000910	0.000615
00888	13649567	0.199543	-9.782834	0.176330	-0.005611	0.000583	-0.000677
00889	13649617	0.224292	-9.784331	0.185811	-0.005260	0.000686	-0.000713
00890	13649667	0.227174	-9.779221	0.195215	-0.002613	-0.000501	-0.005566
00891	13649717	0.210690	-9.782210	0.191274	-0.000131	0.001132	-0.002389
00892	13649767	0.208384	-9.774084	0.170331	-0.002905	0.000790	-0.001293
00893	13649817	0.214791	-9.776328	0.182327	-0.003237	-0.001961	-0.003716
00894	13649867	0.210122	-9.784933	0.183059	-0.001966	0.001580	-0.003181
00895	13649917	0.219283	-9.789654	0.172876	-0.006177	0.000217	-0.003234
00896	13649967	0.218165	-9.786509	0.168400	-0.004018	0.001299	0.002342
00897	13650017	0.224961	-9.797607	0.185813	-0.005466	0.003363	-0.002615
00898	13650067	0.220154	-9.792077	0.177276	-0.003564	0.003080	0.001130
00899	13650117	0.225207	-9.778337	0.182713	-0.005069	0.001016	0.000257
00900	13650167	0.199831	-9.775649	0.187992	0.000104	0.002632	0.001346
00901	13650217	0.208225	-9.789703	0.183034	-0.004519	0.001736	-0.001723
00902	13650267	0.224236	-9.795507	0.171875	-0.008633	0.001504	0.001457
00903	13650317	0.212555	-9.777411	0.188983	-0.004148	0.001963	-0.003356
00904	13650367	0.212213	-9.787352	0.171959	-0.005626	0.000363	0.000322
00905	13650417	0.223931	-9.787633	0.184420	-0.003832	-0.000966	-0.002062
00906	13650467	0.221220	-9.771614	0.189466	-0.003082	-0.000308	-0.001390
00907	13650517	0.227823	-9.788239	0.164501	-0.002688	-0.000653	-0.001551
00908	13650567	0.223169	-9.795218	0.167629	-0.002430	0.000120	-0.002476
00909	13650617	0.216278	-9.788710	0.186366	-0.003876	0.002615	-0.002621
00910	13650667	0.204383	-9.782453	0.186157	-0.006146	0.002279	-0.005052
00911	13650717	0.224711	-9.783419	0.172538	-0.006283	-0.000499	-0.004010
00912	13650767	0.208648	-9.793797	0.171568	-0.002438	0.003510	-0.004508
00913	13650817	0.210105	-9.785988	0.173863	-0.005125	0.000629	-0.000735
00914	13650867	0.231624	-9.799472	0.188910	-0.004341	0.002223	-0.000601
00915	13650917	0.227597	-9.812414	0.178869	-0.004169	0.002676	-0.001883
00916	13650967	0.226877	-9.796128	0.183968	-0.002564	0.000507	-0.001322
00917	13651017	0.218764	-9.797585	0.179194	-0.004447	0.003676	-0.000209
00918	13651067	0.223619	-9.799171	0.163556	-0.005010	0.000214	0.001986
00919	13651117	0.218641	-9.780787	0.182048	-0.003584	0.003327	-0.004186
00920	13651167	0.232705	-9.789229	0.171919	-0.002316	0.000503	-0.006037
00921	13651217	0.237419	-9.788672	0.185796	-0.003777	-0.000510	-0.000714
00922	13651267	0.200039	-9.777426	0.195370	-0.001779	-0.000357	-0.006616
00923	13651317	0.215430	-9.789482	0.174364	-0.004142	0.000965	-0.001314
00924	13651367	0.219160	-9.786573	0.173292	0.000665	-0.001467	-0.000568
00925	13651417	0.225098	-9.802966	0.179104	-0.004296	-0.000265	-0.001486
00926	13651467	0.226937	-9.795107	0.163780	-0.004833	0.001404	-0.002079
00927	13651517	0.219665	-9.786667	0.179473	-0.002211	0.002414	-0.003269
00928	13651567	0.211627	-9.788613	0.160984	-0.003739	0.000425	-0.000582
00929	13651617	0.215766	-9.781917	0.191884	-0.005966	0.003529	0.004089
00930	13651667	0.216327	-9.807718	0.172870	-0.005824	0.000647	-0.000156
00931	13651717	0.224150	-9.786407	0.182197	-0.007315	0.002038	-0.002070
00932	13651767	0.204885	-9.776224	0.183334	-0.001676	-0.000149	0.000309
00933	13651817	0.222272	-9.789799	0.185371	-0.004460	-0.002595	-0.004120
00934	13651867	0.217176	-9.781215	0.193778	-0.002784	0.001408	-0.002793
00935	13651917	0.218221	-9.779098	0.195222	-0.004289	0.000546	-0.000734
00936	13651967	0.215428	-9.789026	0.175866	-0.003482	0.000264	-0.001833
00937	13652017	0.213771	-9.788206	0.182483	-0.004687	0.000561	-0.004292
00938	13652067	0.227122	-9.795733	0.173316	-0.005679	0.002008	-0.000853
00939	13652117	0.225438	-9.807343	0.171168	-0.006286	0.000794	-0.001825
00940	13652167	0.208583	-9.775098	0.173872	-0.004680	0.000567	-0.002404
00941	13652217	0.210720	-9.788270	0.184197	-0.005054	-0.001498	0.002107
00942	13652267	0.195963	-9.775580	0.164602	-0.006036	0.000132	0.000996
00943	13652317	0.211935	-9.788801	0.173360	-0.006533	0.001059	0.002797
00944	13652367	0.220450	-9.787772	0.174848	-0.005633	0.001387	-0.003166
00945	13652417	0.225161	-9.794650	0.178615	-0.003750	0.000717	-0.000326
00946	13652467	0.221748	-9.790630	0.177260	-0.002885	0.003124	0.002351
00947	13652517	0.220651	-9.793488	0.176750	-0.004973	0.003114	-0.000405
00948	13652567	0.231051	-9.798338	0.176790	0.000060	0.001361	-0.003407
00949	13652617	0.221092	-9.795371	0.191576	-0.005829	0.004810	-0.001993
00950	13652667	0.219675	-9.793022	0.192096	-0.004545	0.002276	-0.003934
00951	13652717	0.218116	-9.773519	0.203210	-0.002053	0.001717	-0.000417
00952	13652767	0.216938	-9.792560	0.190406	-0.004150	0.001326	0.001317
00953	13652817	0.222564	-9.797417	0.187330	-0.002216	0.002809	0.000101
00954	13652867	0.220299	-9.782375	0.178548	-0.007724	0.001866	-0.002290
00955	13652917	0.231160	-9.801850	0.188900	-0.005004	0.002052	-0.000186
00956	13652967	0.213732	-9.787369	0.174886	-0.003339	-0.000314	-0.002696
00957	13653017	0.207930	-9.760298	0.167726	-0.005706	0.000843	-0.001213
00958	13653067	0.210439	-9.785769	0.206139	-0.006790	0.001332	-0.004573
00959	13653117	0.213945	-9.774506	0.186069	-0.005627	0.000129	-0.002211
00960	13653167	0.225821	-9.793736	0.181744	-0.005635	0.000785	0.001156
00961	13653217	0.223313	-9.791685	0.169766	-0.005476	0.004688	-0.002188
00962	13653267	0.227073	-9.792409	0.173311	-0.004566	0.000118	-0.001126
00963	13653317	0.206852	-9.796093	0.196005	-0.004242	0.000926	-0.002851
00964	13653367	0.229561	-9.799983	0.174804	-0.003204	0.002659	-0.001370
00965	13653417	0.224176	-9.780398	0.176652	-0.008500	0.001914	-0.005081
00966	13653467	0.220849	-9.774090	0.180279	-0.005618	-0.001159	-0.001867
00967	13653517	0.208685	-9.783641	0.174150	-0.005063	0.002722	-0.002426
00968	13653567	0.220357	-9.794844	0.187265	-0.005279	0.001565	0.000073
00969	13653617	0.221227	-9.785598	0.173358	-0.004647	0.001062	0.002950
00970	13653667	0.210852	-9.784634	0.179434	-0.005268	0.002072	-0.002748
00971	13653717	0.208430	-9.787737	0.178527	-0.003104	-0.000466	-0.000039
00972	13653767	0.222360	-9.788561	0.166205	-0.004461	0.000764	-0.000833
00973	13653817	0.191169	-9.765072	0.187721	-0.001585	0.000175	0.000568
00974	13653867	0.206718	-9.780646	0.163714	-0.002626	-0.001262	0.002003
00975	13653917	0.215654	-9.780617	0.199591	-0.002388	0.001026	-0.001802
00976	13653967	0.221371	-9.790576	0.173402	-0.004216	0.002322	-0.000761
00977	13654017	0.210855	-9.791024	0.178438	-0.005879	-0.000649	-0.000131
00978	13654067	0.221919	-9.794991	0.167387	-0.005239	0.000171	-0.000770
00979	13654117	0.224728	-9.789659	0.177990	-0.000711	0.002480	-0.002658
00980	13654167	0.214454	-9.798840	0.180567	-0.006221	0.001095	0.001832
00981	13654217	0.218615	-9.780087	0.167611	-0.005507	0.002621	-0.000917
00982	13654267	0.238915	-9.803698	0.176618	-0.004391	-0.001463	-0.001524
00983	13654317	0.230126	-9.796573	0.199952	-0.004586	0.001731	-0.001953
00984	13654367	0.235055	-9.788600	0.194152	-0.007138	-0.000611	-0.002755
00985	13654417	0.215090	-9.781486	0.178466	-0.002863	-0.001369	-0.003089
00986	13654467	0.235414	-9.790544	0.182112	-0.006214	0.001670	-0.001694
00987	13654517	0.204673	-9.792006	0.175375	-0.005229	0.000983	-0.000282
00988	13654567	0.215847	-9.766647	0.170819	-0.003508	0.004300	-0.001391
00989	13654617	0.220274	-9.785314	0.184820	-0.008206	-0.000072	-0.001407
00990	13654667	0.226331	-9.804006	0.186740	-0.004238	0.002360	0.002956
00991	13654717	0.229771	-9.779522	0.170454	-0.002827	0.003058	0.000490
00992	13654767	0.205459	-9.769010	0.192921	-0.003205	0.000856	0.000770
00993	13654817	0.214030	-9.786489	0.163070	-0.006708	0.003146	-0.002387
00994	13654867	0.198081	-9.772224	0.210342	-0.006957	0.001913	-0.002549
00995	13654917	0.221676	-9.783535	0.147234	-0.004403	0.002961	-0.002172
00996	13654967	0.222073	-9.791430	0.213896	-0.003100	0.002175	-0.002144
00997	13655017	0.232007	-9.776763	0.162530	-0.004122	0.001257	-0.001858
00998	13655067	0.230284	-9.799966	0.189314	-0.005890	0.000089	-0.004293
00999	13655117	0.227562	-9.770239	0.197957	-0.007701	0.002523	0.001811
01000	13655167	0.237922	-9.796146	0.162699	-0.006953	0.006086	-0.000768
01001	13655217	0.207458	-9.779556	0.169643	-0.003162	-0.000861	-0.001582
01002	13655267	0.217701	-9.792762	0.189721	-0.003127	0.001245	0.000416
01003	13655317	0.211828	-9.791368	0.170662	0.000335	-0.000824	0.000849
01004	13655367	0.219546	-9.781731	0.197994	-0.006274	-0.000920	-0.005550
01005	13655417	0.214144	-9.781770	0.134304	-0.007453	-0.000905	-0.002211
01006	13655467	0.225604	-9.778868	0.186546	-0.004853	-0.001723	0.001558
01007	13655517	0.229780	-9.814709	0.175458	-0.005206	-0.001925	-0.001102
01008	13655567	0.196137	-9.774901	0.181833	-0.005298	-0.004320	-0.003131
01009	13655617	0.235300	-9.795599	0.186727	-0.003839	0.002654	0.001578
01010	13655667	0.221638	-9.802972	0.161698	-0.003470	0.002849	-0.002170
01011	13655717	0.203797	-9.783917	0.189058	-0.004419	0.000446	-0.001601
01012	13655767	0.223256	-9.787088	0.178861	-0.004343	-0.000108	-0.003847
01013	13655817	0.212586	-9.787452	0.178297	-0.009637	-0.001916	-0.005928
01014	13655867	0.210450	-9.783976	0.197573	-0.007106	-0.001510	-0.001545
01015	13655917	0.220209	-9.789067	0.166695	-0.002632	0.002703	-0.000700
01016	13655967	0.205460	-9.805851	0.197155	-0.005481	-0.001284	-0.000422
01017	13656017	0.194457	-9.793758	0.188431	-0.003843	0.001448	-0.003590
01018	13656067	0.205907	-9.794919	0.180930	-0.002523	-0.004073	-0.002146
01019	13656117	0.220997	-9.803180	0.190030	-0.001333	-0.000186	-0.004310
01020	13656167	0.227960	-9.803256	0.169768	-0.003599	-0.000994	-0.000113
01021	13656217	0.202112	-9.773928	0.169850	-0.004393	-0.001459	-0.001290
01022	13656267	0.223785	-9.792975	0.176985	-0.003501	0.003815	-0.002552
01023	13656317	0.209288	-9.782338	0.182922	-0.008109	0.001029	-0.000373
01024	13656367	0.215379	-9.795424	0.190668	-0.005950	-0.000550	0.000250
01025	13656417	0.205755	-9.788502	0.195290	-0.002524	0.002382	-0.002238
01026	13656467	0.215707	-9.795426	0.190864	-0.006370	-0.000160	0.003877
01027	13656517	0.207732	-9.772899	0.184962	-0.003129	0.003505	0.000267
01028	13656567	0.226471	-9.793880	0.160711	-0.000142	-0.000384	-0.002549
01029	13656617	0.223219	-9.790988	0.185791	-0.005703	0.002681	-0.001013
01030	13656667	0.219101	-9.775949	0.161012	-0.001039	-0.001173	-0.000918
01031	13656717	0.210757	-9.784689	0.182641	-0.007552	0.000454	-0.000759
01032	13656767	0.235765	-9.799027	0.178772	-0.006127	0.002896	-0.002680
01033	13656817	0.244100	-9.803246	0.182035	-0.008705	-0.001571	-0.001893
01034	13656867	0.217581	-9.785722	0.193762	-0.004126	-0.001674	-0.000367
01035	13656917	0.225335	-9.778130	0.184899	-0.003304	0.002392	-0.004961
01036	13656967	0.222618	-9.799742	0.183325	-0.007345	0.006304	-0.001436
01037	13657017	0.211404	-9.782020	0.179433	-0.001502	0.000599	0.000824
01038	13657067	0.220354	-9.774146	0.199250	-0.004598	-0.000916	-0.002769
01039	13657117	0.205489	-9.779078	0.183555	-0.004333	0.001799	-0.003135
01040	13657167	0.231878	-9.793845	0.178371	-0.003426	0.001492	-0.002117
01041	13657217	0.226218	-9.782104	0.181386	-0.000212	0.003068	-0.001732
01042	13657267	0.208094	-9.777803	0.180199	-0.002624	0.001342	-0.002629
01043	13657317	0.206845	-9.787954	0.176050	-0.005126	0.001427	-0.003297
01044	13657367	0.204733	-9.779117	0.185754	-0.002836	0.003051	-0.003645
01045	13657417	0.221839	-9.793502	0.178912	-0.002868	-0.000077	-0.000651
01046	13657467	0.225025	-9.778998	0.179158	-0.002050	0.000355	-0.002281
01047	13657517	0.206474	-9.785710	0.184274	-0.002750	0.002642	0.000487
01048	13657567	0.206302	-9.785071	0.172684	-0.005679	0.000938	-0.000185
01049	13657617	0.225226	-9.797706	0.192787	-0.003159	0.001013	-0.003593
01050	13657667	0.219880	-9.793466	0.174608	-0.003994	0.000864	-0.005545
01051	13657717	0.228720	-9.791252	0.176415	-0.006316	-0.001301	-0.002125
01052	13657767	0.223749	-9.787071	0.178694	-0.002232	0.004094	-0.003739
01053	13657817	0.221064	-9.771427	0.177009	-0.004007	-0.002483	-0.000371
01054	13657867	0.220571	-9.780386	0.188701	-0.006151	0.002065	0.001036
01055	13657917	0.214524	-9.795156	0.172468	-0.003565	0.001945	0.000194
01056	13657967	0.219467	-9.802302	0.162548	-0.006914	0.000463	-0.001467
01057	13658017	0.217882	-9.798804	0.196920	-0.003155	0.001946	-0.003972
01058	13658067	0.210052	-9.785433	0.184132	-0.006180	-0.001523	-0.001129
01059	13658117	0.226561	-9.808270	0.171243	-0.002370	0.003807	0.000169
01060	13658167	0.198142	-9.783579	0.177999	-0.006364	0.001542	0.000715
01061	13658217	0.226022	-9.790081	0.159707	-0.003774	0.001062	-0.003748
01062	13658267	0.212737	-9.779186	0.196599	-0.006163	0.004254	-0.002700
01063	13658317	0.219991	-9.794393	0.188427	-0.007545	-0.000006	-0.004067
01064	13658367	0.215042	-9.793585	0.162912	-0.003149	-0.000212	-0.000647
01065	13658417	0.226052	-9.790916	0.183460	-0.002148	0.000615	-0.000679
01066	13658467	0.242453	-9.803965	0.181209	-0.002839	0.002214	-0.001729
01067	13658517	0.214605	-9.771581	0.182345	-0.001761	-0.001247	0.001970
01068	13658567	0.206559	-9.787108	0.166930	-0.006504	-0.001432	-0.000773
01069	13658617	0.216713	-9.781863	0.173228	-0.002602	0.001933	-0.000450
01070	13658667	0.211161	-9.782157	0.187772	-0.004492	-0.000007	-0.000900
01071	13658717	0.211954	-9.757559	0.178247	-0.002185	0.001445	-0.004393
01072	13658767	0.201628	-9.783651	0.200857	-0.003394	0.001527	-0.002945
01073	13658817	0.206766	-9.781567	0.192935	-0.000863	0.001642	0.002337
01074	13658867	0.217023	-9.786657	0.176988	-0.004855	0.000179	-0.000548
01075	13658917	0.210844	-9.768202	0.175112	-0.003633	-0.001158	-0.002063
01076	13658967	0.231178	-9.783048	0.185292	-0.006922	0.001821	-0.000211
01077	13659017	0.221585	-9.790225	0.180934	-0.006429	0.002309	-0.003288
01078	13659067	0.200624	-9.784466	0.191280	-0.002583	-0.000646	0.001977
01079	13659117	0.215667	-9.789574	0.195978	-0.003532	0.001043	0.000064
01080	13659167	0.208173	-9.791413	0.186481	0.000140	0.003207	-0.000865
01081	13659217	0.219200	-9.790179	0.176817	-0.001795	0.002658	-0.000254
01082	13659267	0.226333	-9.775476	0.182445	-0.004209	0.002096	-0.000347
01083	13659317	0.216943	-9.788828	0.194993	-0.004236	-0.000034	-0.000069
01084	13659367	0.215160	-9.782317	0.170873	-0.008845	0.001784	-0.002673
01085	13659417	0.211425	-9.776304	0.178508	-0.003901	0.002355	-0.001627
01086	13659467	0.235445	-9.799830	0.184548	-0.006035	0.002129	-0.000148
01087	13659517	0.210246	-9.772087	0.164614	-0.002509	0.002964	-0.000409
01088	13659567	0.204745	-9.780023	0.183346	-0.003781	-0.000449	-0.001322
01089	13659617	0.203780	-9.777419	0.182358	-0.003726	0.002008	-0.000025
01090	13659667	0.215200	-9.813534	0.180402	-0.002161	0.001971	-0.002116
01091	13659717	0.202068	-9.771783	0.169329	-0.007782	0.003906	0.000157
01092	13659767	0.212917	-9.773142	0.189954	-0.005621	0.001360	0.000616
01093	13659817	0.230971	-9.795282	0.178469	-0.002158	0.002705	-0.003619
01094	13659867	0.234941	-9.806750	0.171390	-0.004238	0.002960	-0.001178
01095	13659917	0.210486	-9.790120	0.181340	-0.004610	0.001699	0.002533
01096	13659967	0.225055	-9.774364	0.170906	-0.005602	-0.001913	-0.002773
01097	13660017	0.204448	-9.791335	0.177787	-0.004514	-0.000760	-0.001811
01098	13660067	0.225691	-9.795715	0.187044	-0.003733	0.000836	-0.002063
01099	13660117	0.209194	-9.787984	0.179631	-0.005794	0.000054	-0.003145
01100	13660167	0.216204	-9.789884	0.169817	-0.005301	0.000708	-0.003500
01101	13660217	0.221339	-9.796118	0.178881	-0.004053	0.002193	0.000416
01102	13660267	0.229949	-9.797163	0.176682	-0.003928	0.000292	0.002520
01103	13660317	0.218812	-9.784042	0.178412	-0.005088	-0.001635	0.001396
01104	13660367	0.225815	-9.810313	0.179873	-0.002651	0.000279	0.000241
01105	13660417	0.218575	-9.785996	0.196582	-0.005232	-0.001319	-0.001010
01106	13660467	0.217188	-9.774520	0.174395	-0.002859	0.001395	-0.004207
01107	13660517	0.216267	-9.789979	0.191898	-0.004930	0.000235	-0.002026
01108	13660567	0.216076	-9.793852	0.180779	-0.005030	0.001658	0.001571
01109	13660617	0.208790	-9.773251	0.177515	-0.006197	-0.000209	-0.001767
01110	13660667	0.222973	-9.791868	0.181519	-0.005121	0.002460	-0.000670
01111	13660717	0.213135	-9.789694	0.170827	-0.002698	0.003102	-0.006984
01112	13660767	0.218165	-9.798698	0.173822	-0.004530	0.001858	-0.002053
01113	13660817	0.224453	-9.801884	0.201452	-0.003928	0.001127	-0.000905
01114	13660867	0.219091	-9.792865	0.196858	-0.003909	0.002611	-0.000286
01115	13660917	0.226736	-9.775780	0.171907	-0.004723	-0.000282	-0.002191
01116	13660967	0.222189	-9.784763	0.181284	-0.003740	0.003391	-0.000219
01117	13661017	0.220908	-9.804033	0.152710	-0.007775	0.001382	-0.000247
01118	13661067	0.196399	-9.773428	0.179276	-0.002994	0.001849	-0.001571
01119	13661117	0.215831	-9.777708	0.196251	-0.001018	-0.002053	-0.001923
01120	13661167	0.246586	-9.806950	0.178169	-0.000599	0.002924	-0.002478
01121	13661217	0.213498	-9.786516	0.179867	-0.005589	0.001799	-0.004454
01122	13661267	0.223903	-9.780888	0.177414	-0.004684	0.005658	-0.004628
01123	13661317	0.223738	-9.784630	0.189840	-0.006754	0.002693	0.001709
01124	13661367	0.204706	-9.782660	0.185221	-0.003137	0.000531	0.001689
01125	13661417	0.195315	-9.777813	0.170715	-0.001489	0.003879	-0.002688
01126	13661467	0.226336	-9.779485	0.196044	-0.007683	0.000280	-0.002823
01127	13661517	0.207759	-9.768204	0.172331	-0.000393	0.001841	0.000756
01128	13661567	0.220906	-9.779417	0.187737	-0.004445	0.003343	-0.001370
01129	13661617	0.227945	-9.786198	0.155312	-0.006038	-0.000212	-0.003856
01130	13661667	0.228024	-9.793588	0.189344	-0.005604	-0.001913	-0.003865
01131	13661717	0.223527	-9.792889	0.186271	-0.005382	0.003289	-0.004189
01132	13661767	0.211813	-9.788117	0.174755	-0.010621	-0.002871	-0.002190
01133	13661817	0.217575	-9.773468	0.183651	-0.007218	0.002807	-0.002297
01134	13661867	0.211390	-9.791352	0.168835	-0.006488	0.002245	0.000073
01135	13661917	0.223429	-9.780660	0.177575	-0.007669	0.000796	-0.003524
01136	13661967	0.219628	-9.786115	0.189714	-0.004280	0.001018	-0.003084
01137	13662017	0.194312	-9.774325	0.190068	-0.003460	0.001787	0.001632
01138	13662067	0.219612	-9.776885	0.191658	-0.002401	0.001349	0.000821
01139	13662117	0.210193	-9.789274	0.171742	-0.003862	0.000898	-0.002123
01140	13662167	0.214783	-9.789867	0.167462	-0.004451	0.004338	-0.003834
01141	13662217	0.196820	-9.787091	0.173546	-0.002959	0.001656	-0.002376
01142	13662267	0.196832	-9.774112	0.177592	-0.004422	0.001408	-0.001089
01143	13662317	0.218626	-9.776856	0.173515	-0.001027	0.001140	-0.002293
01144	13662367	0.222257	-9.794336	0.187566	-0.002816	0.000241	-0.000654
01145	13662417	0.235986	-9.822048	0.179981	-0.006323	0.001860	-0.000478
01146	13662467	0.208257	-9.772517	0.176305	-0.005178	0.000198	0.000634
01147	13662517	0.213133	-9.786777	0.181358	-0.002168	0.000061	-0.000404
01148	13662567	0.224190	-9.785054	0.170898	-0.007518	0.001253	-0.001504
01149	13662617	0.209302	-9.789126	0.192536	-0.007898	0.002120	-0.002071
01150	13662667	0.206795	-9.767827	0.178373	-0.008800	-0.000704	-0.000802
01151	13662717	0.207205	-9.770450	0.179862	-0.006602	0.003023	0.000943
01152	13662767	0.223403	-9.786775	0.174250	-0.005006	0.000853	0.000378
01153	13662817	0.216539	-9.771731	0.177978	-0.005683	0.002131	0.001091
01154	13662867	0.228391	-9.771375	0.180083	-0.004870	0.003826	0.001900
01155	13662917	0.212373	-9.781784	0.180156	-0.002865	-0.001279	-0.001239
01156	13662967	0.223712	-9.789829	0.172682	-0.003400	-0.002514	0.000193
01157	13663017	0.211165	-9.773353	0.170783	-0.005212	-0.000966	-0.001713
01158	13663067	0.211615	-9.784769	0.173415	-0.003546	0.002031	-0.002789
01159	13663117	0.214676	-9.781167	0.203828	-0.005384	-0.001515	-0.001524
01160	13663167	0.236723	-9.781441	0.177335	-0.005130	0.004783	-0.001042
01161	13663217	0.208966	-9.772452	0.172417	-0.008063	0.002477	-0.000435
01162	13663267	0.208234	-9.790937	0.170499	-0.007364	-0.000547	0.000637
01163	13663317	0.221823	-9.790181	0.193965	-0.005595	0.001927	-0.004774
01164	13663367	0.220947	-9.785993	0.167083	-0.006814	0.003070	-0.003769
01165	13663417	0.230897	-9.788930	0.181775	-0.003377	-0.001417	-0.001722
01166	13663467	0.222910	-9.782520	0.174660	-0.001076	0.000786	-0.001679
01167	13663517	0.222659	-9.817612	0.173447	-0.001173	-0.001246	-0.001120
01168	13663567	0.202798	-9.785060	0.169865	-0.006086	-0.000563	-0.001387
01169	13663617	0.218217	-9.780687	0.175003	-0.005188	0.002327	-0.003680
01170	13663667	0.231866	-9.791436	0.175981	-0.003711	0.003325	-0.000639
01171	13663717	0.224912	-9.786031	0.173977	0.000311	0.002455	-0.002700
01172	13663767	0.217353	-9.778777	0.174101	-0.005925	0.003907	0.001169
01173	13663817	0.211419	-9.783454	0.195732	-0.005802	0.000571	-0.002152
01174	13663867	0.217297	-9.783314	0.159947	-0.005534	-0.000743	-0.000077
01175	13663917	0.216908	-9.778819	0.160785	-0.002309	-0.000357	0.002228
01176	13663967	0.241873	-9.795127	0.177374	-0.003709	0.000127	-0.001010
01177	13664017	0.219190	-9.795023	0.182899	-0.007788	0.000865	0.000900
01178	13664067	0.207943	-9.787196	0.189484	-0.005238	-0.000226	-0.003599
01179	13664117	0.226225	-9.784397	0.192119	-0.001660	0.002294	-0.001194
01180	13664167	0.221218	-9.795060	0.187227	-0.005614	0.001103	0.002882
01181	13664217	0.232563	-9.787016	0.181913	-0.005312	0.002094	-0.003880
01182	13664267	0.231047	-9.779696	0.198129	-0.007615	0.000383	0.000095
01183	13664317	0.226725	-9.799328	0.175568	-0.000435	0.002866	-0.001353
01184	13664367	0.219955	-9.794080	0.183472	-0.004163	0.000183	-0.001901
01185	13664417	0.228020	-9.776587	0.179084	-0.004797	0.002240	-0.001248
01186	13664467	0.223867	-9.777234	0.171465	-0.003713	0.000318	-0.001453
01187	13664517	0.213387	-9.795923	0.206303	-0.001655	-0.001194	-0.001983
01188	13664567	0.200699	-9.785166	0.190537	-0.005348	0.001550	-0.000224
01189	13664617	0.216931	-9.785721	0.193090	-0.003009	0.003235	-0.002720
01190	13664667	0.224611	-9.788343	0.184926	-0.002024	0.000447	-0.001521
01191	13664717	0.222260	-9.793848	0.186277	-0.004654	-0.000242	-0.001072
01192	13664767	0.219874	-9.778995	0.174327	-0.005331	0.001805	-0.003718
01193	13664817	0.212706	-9.783881	0.178000	-0.004834	0.002334	-0.001920
01194	13664867	0.200425	-9.770952	0.175826	-0.005851	0.000992	-0.002567
01195	13664917	0.214150	-9.790374	0.184674	-0.003649	0.003356	-0.002524
01196	13664967	0.201036	-9.761277	0.163994	-0.009847	-0.000948	-0.000545
01197	13665017	0.199152	-9.772537	0.200624	-0.001402	0.000840	-0.004309
01198	13665067	0.203704	-9.770337	0.184403	-0.006066	-0.000305	-0.001770
01199	13665117	0.224035	-9.785175	0.163241	-0.005987	-0.000885	-0.003508
01200	13665167	0.222328	-9.793566	0.183116	-0.008865	-0.001773	-0.000875
01201	13665217	0.218332	-9.793359	0.166435	-0.005052	-0.001996	-0.000789
01202	13665267	0.212042	-9.781563	0.196146	-0.004825	0.001109	-0.000647
01203	13665317	0.219136	-9.791390	0.178645	-0.005867	-0.001261	0.001651
01204	13665367	0.226833	-9.778419	0.157746	-0.003994	-0.002171	-0.002430
01205	13665417	0.223865	-9.784753	0.182002	-0.004230	0.002412	-0.002240
01206	13665467	0.220604	-9.782950	0.170039	-0.003078	0.003561	-0.000992
01207	13665517	0.208890	-9.785955	0.217713	-0.006031	0.000861	-0.000258
01208	13665567	0.233525	-9.793368	0.148146	-0.003558	0.003389	-0.003009
01209	13665617	0.221445	-9.791717	0.200934	-0.003795	0.003031	-0.001279
01210	13665667	0.225088	-9.765965	0.180129	-0.001851	0.002357	-0.000197
01211	13665717	0.203390	-9.772604	0.146921	-0.003399	0.000586	0.000501
01212	13665767	0.236954	-9.795280	0.198469	-0.003840	0.002553	0.000287
01213	13665817	0.215806	-9.785489	0.145605	-0.003885	0.003609	-0.003294
01214	13665867	0.218238	-9.793416	0.185203	-0.001107	0.001786	-0.002766
01215	13665917	0.204574	-9.794612	0.174863	-0.006035	0.002796	-0.002810
01216	13665967	0.215852	-9.772940	0.162866	-0.001820	-0.000234	-0.005788
01217	13666017	0.201533	-9.757892	0.191648	-0.006670	0.000919	-0.001217
01218	13666067	0.215524	-9.772686	0.146775	-0.004051	0.002222	0.001542
01219	13666117	0.217907	-9.787937	0.183892	-0.006183	0.001765	0.000679
01220	13666167	0.202360	-9.779453	0.175225	-0.000534	0.003155	0.000545
01221	13666217	0.211196	-9.777325	0.182319	-0.003825	0.000604	-0.004111
01222	13666267	0.213769	-9.774386	0.178759	-0.002769	0.001822	-0.000615
01223	13666317	0.231285	-9.805218	0.176751	-0.002509	0.003730	-0.001502
01224	13666367	0.219589	-9.782105	0.191328	-0.005540	0.003288	-0.003611
01225	13666417	0.226623	-9.774471	0.178876	-0.005370	-0.001097	-0.002287
01226	13666467	0.214878	-9.795897	0.190045	-0.002240	-0.001585	0.000905
01227	13666517	0.230374	-9.803456	0.200197	-0.003328	0.001363	-0.000138
01228	13666567	0.205584	-9.780566	0.172855	-0.000349	0.002217	-0.001673
01229	13666617	0.216714	-9.797302	0.174893	-0.002944	-0.001862	-0.002111
01230	13666667	0.206464	-9.780398	0.178009	-0.004166	-0.000492	-0.001070
01231	13666717	0.236364	-9.791792	0.171573	-0.005566	0.005387	-0.002607
01232	13666767	0.191276	-9.768709	0.176924	-0.002715	0.001278	0.001116
01233	13666817	0.203651	-9.780593	0.172747	-0.004672	0.000076	-0.002600
01234	13666867	0.209413	-9.764533	0.167260	-0.003153	0.002814	-0.001602
01235	13666917	0.226065	-9.789322	0.172628	-0.004776	0.000792	0.001630
01236	13666967	0.223427	-9.784613	0.187782	-0.003579	-0.000003	-0.003735
01237	13667017	0.226830	-9.801170	0.172142	-0.004931	0.000071	-0.003339
01238	13667067	0.229350	-9.789475	0.200307	-0.007436	0.001545	-0.003906
01239	13667117	0.204512	-9.795295	0.173240	-0.003367	0.003589	-0.000859
01240	13667167	0.226642	-9.788096	0.169891	-0.008111	0.003760	-0.002420
01241	13667217	0.216755	-9.788824	0.179123	-0.006518	-0.000052	-0.001125
01242	13667267	0.228229	-9.785666	0.183148	-0.003877	0.003383	-0.003362
01243	13667317	0.211988	-9.783364	0.174646	-0.003352	0.001038	-0.001480
01244	13667367	0.214605	-9.780708	0.173889	-0.003984	-0.000427	-0.002192
01245	13667417	0.211120	-9.790902	0.185934	-0.003517	0.001899	-0.004138
01246	13667467	0.208034	-9.793929	0.179667	-0.004584	-0.001370	-0.000338
01247	13667517	0.204745	-9.778713	0.190222	-0.005537	0.000188	-0.002796
01248	13667567	0.207814	-9.778265	0.178971	-0.003871	0.002354	-0.001121
01249	13667617	0.219328	-9.783081	0.177819	-0.001026	0.000401	-0.000338
01250	13667667	0.201910	-9.776402	0.176332	-0.004913	0.002816	-0.002910
01251	13667717	0.202712	-9.784765	0.181110	-0.004701	0.002009	-0.004037
01252	13667767	0.215465	-9.788879	0.196992	-0.001484	0.004852	-0.000986
01253	13667817	0.209408	-9.792611	0.187537	-0.006153	0.000504	-0.001027
01254	13667867	0.206326	-9.792951	0.192018	-0.000811	-0.003564	-0.001644
01255	13667917	0.220164	-9.789738	0.179142	-0.004080	0.002667	-0.002757
01256	13667967	0.211972	-9.779328	0.174128	-0.003681	0.000962	-0.004464
01257	13668017	0.224004	-9.784218	0.162521	-0.006539	-0.000605	-0.002027
01258	13668067	0.217672	-9.798037	0.176788	-0.004327	0.003571	-0.002043
01259	13668117	0.198653	-9.793432	0.185930	-0.005928	0.001772	0.000614
01260	13668167	0.224966	-9.782843	0.182204	-0.007398	0.002877	0.001197
01261	13668217	0.208049	-9.777609	0.182909	0.000052	0.001946	0.001110
01262	13668267	0.209538	-9.786228	0.173895	-0.005617	0.002507	-0.005441
01263	13668317	0.213228	-9.768662	0.176006	-0.006238	0.002377	-0.001532
01264	13668367	0.208716	-9.772055	0.177489	-0.005387	0.001808	-0.000959
01265	13668417	0.227373	-9.768559	0.165177	-0.003775	0.004320	-0.001372
01266	13668467	0.219321	-9.803577	0.183994	-0.002249	0.000343	-0.002321
01267	13668517	0.229763	-9.783765	0.184151	-0.003725	-0.001419	-0.000599
01268	13668567	0.227518	-9.806357	0.186359	-0.002375	0.001340	-0.003220
01269	13668617	0.225383	-9.790194	0.182344	-0.002087	0.003642	-0.000257
01270	13668667	0.232534	-9.792816	0.188738	-0.001427	0.000813	-0.001556
01271	13668717	0.207528	-9.767547	0.160299	-0.001909	-0.000063	0.000399
01272	13668767	0.219336	-9.754313	0.173603	-0.003939	0.003216	-0.004961
01273	13668817	0.235527	-9.799963	0.177872	-0.003542	0.001905	-0.002571
01274	13668867	0.223530	-9.772721	0.186020	-0.005772	0.001277	-0.005802
01275	13668917	0.212925	-9.775100	0.162541	-0.008095	-0.001827	-0.001903
01276	13668967	0.212286	-9.787493	0.180894	-0.002781	0.001014	-0.002315
01277	13669017	0.204135	-9.792842	0.183030	-0.004973	0.005051	-0.000430
01278	13669067	0.209018	-9.774998	0.167998	-0.002987	-0.000179	0.000755
01279	13669117	0.213611	-9.788661	0.196400	-0.005326	-0.000453	-0.003089
01280	13669167	0.216829	-9.792298	0.188749	-0.002738	0.000692	-0.002734
01281	13669217	0.228368	-9.795384	0.182669	-0.004759	-0.001317	-0.003926
01282	13669267	0.219659	-9.780798	0.183875	-0.006378	-0.000107	0.002239
01283	13669317	0.222812	-9.793744	0.195031	-0.002855	0.001267	-0.004403
01284	13669367	0.227468	-9.784453	0.181031	-0.004347	0.004117	-0.003003
01285	13669417	0.222657	-9.785391	0.191598	-0.005103	-0.000614	-0.004466
01286	13669467	0.212541	-9.781577	0.182522	-0.005668	0.000585	0.001407
01287	13669517	0.212651	-9.773855	0.173929	-0.003462	0.001453	-0.002731
01288	13669567	0.214874	-9.785976	0.208357	-0.006814	0.001433	0.000358
01289	13669617	0.197807	-9.789750	0.177609	-0.003615	0.002158	-0.003174
01290	13669667	0.226830	-9.792158	0.187756	-0.003454	-0.001034	-0.002614
01291	13669717	0.225831	-9.781391	0.196637	-0.003936	0.002582	0.001251
01292	13669767	0.235158	-9.791220	0.179774	-0.004176	-0.000335	-0.001426
01293	13669817	0.219616	-9.793736	0.160592	-0.006142	0.001084	-0.000961
01294	13669867	0.228676	-9.794452	0.173654	-0.004560	-0.000242	-0.000715
01295	13669917	0.221467	-9.776630	0.186276	-0.001093	0.001588	-0.000709
01296	13669967	0.215964	-9.802418	0.192934	-0.003555	0.002746	0.000332
01297	13670017	0.224264	-9.789590	0.182603	-0.003451	0.002193	-0.003105
01298	13670067	0.215291	-9.791250	0.175531	-0.009977	0.003207	-0.002564
01299	13670117	0.222970	-9.777694	0.179046	-0.003532	0.001674	-0.002946
01300	13670167	0.211546	-9.785883	0.162758	-0.005788	0.004183	-0.003885
01301	13670217	0.204816	-9.779079	0.177616	-0.004513	0.001693	-0.000214
01302	13670267	0.230841	-9.793880	0.204795	-0.005879	0.003187	-0.001106
01303	13670317	0.228132	-9.783590	0.180902	-0.002662	0.003055	0.002316
01304	13670367	0.217014	-9.773647	0.158169	-0.004038	0.001605	-0.000153
01305	13670417	0.209430	-9.776620	0.175902	-0.006911	0.001226	-0.002710
01306	13670467	0.217390	-9.778484	0.195555	-0.006096	0.000985	-0.001083
01307	13670517	0.213355	-9.781553	0.191510	-0.004376	0.001274	0.000647
01308	13670567	0.207116	-9.785323	0.199907	-0.004758	-0.003121	-0.000243
01309	13670617	0.218033	-9.787675	0.191965	-0.003291	0.002196	-0.002939
01310	13670667	0.204601	-9.776619	0.202825	-0.002921	0.001884	0.000393
01311	13670717	0.221741	-9.782383	0.190243	-0.004090	0.000216	0.000161
01312	13670767	0.215345	-9.794159	0.178984	-0.004943	0.001746	-0.002525
01313	13670817	0.230188	-9.777834	0.194210	-0.006472	0.001854	-0.000244
01314	13670867	0.212470	-9.778380	0.184810	-0.002265	0.003315	-0.001048
01315	13670917	0.223490	-9.788501	0.172500	-0.004834	0.001627	0.001545
01316	13670967	0.217927	-9.792015	0.165448	-0.001609	0.000679	-0.000741
01317	13671017	0.204227	-9.760963	0.171392	-0.004160	0.001308	-0.003136
01318	13671067	0.230359	-9.781960	0.169597	-0.002329	0.000220	0.001369
01319	13671117	0.206446	-9.767264	0.166308	-0.006228	-0.000920	0.000029
01320	13671167	0.215686	-9.789720	0.168531	-0.001442	0.003091	-0.006210
01321	13671217	0.217146	-9.788968	0.182642	-0.002981	0.001325	-0.003716
01322	13671267	0.232901	-9.796991	0.192143	-0.004430	-0.001506	-0.003315
01323	13671317	0.192614	-9.792525	0.178485	-0.003039	0.003464	-0.001328
01324	13671367	0.197461	-9.790018	0.173045	-0.004406	-0.001016	-0.001800
01325	13671417	0.222457	-9.795885	0.173757	-0.003887	0.000833	-0.000513
01326	13671467	0.212781	-9.778312	0.165095	-0.007468	-0.001296	0.000064
01327	13671517	0.222740	-9.788628	0.164810	-0.006862	0.000707	-0.002685
01328	13671567	0.217957	-9.786124	0.183324	-0.004306	0.002117	0.000136
01329	13671617	0.207045	-9.777968	0.184343	-0.004771	-0.003906	-0.003994
01330	13671667	0.219707	-9.797116	0.190313	-0.001822	0.000514	0.000378
01331	13671717	0.231376	-9.803911	0.178866	-0.007244	-0.001324	-0.000805
01332	13671767	0.215687	-9.779799	0.202755	-0.004173	0.002823	-0.002421
01333	13671817	0.225790	-9.780210	0.175382	-0.004447	0.000434	-0.001220
01334	13671867	0.217820	-9.782697	0.176579	-0.004762	0.001071	-0.002113
01335	13671917	0.210300	-9.768839	0.164204	-0.003020	-0.001349	-0.001101
01336	13671967	0.215801	-9.799251	0.171881	-0.002242	0.003869	0.002672
01337	13672017	0.208863	-9.771172	0.175782	-0.001492	-0.000899	-0.000174
01338	13672067	0.219907	-9.786877	0.187939	-0.001884	-0.000779	-0.001197
01339	13672117	0.214554	-9.778729	0.178527	-0.005292	-0.000191	0.000639
01340	13672167	0.203570	-9.778798	0.173315	-0.006101	-0.001346	-0.005002
01341	13672217	0.220962	-9.785586	0.165868	-0.002161	0.004022	-0.001494
01342	13672267	0.204257	-9.777699	0.164518	-0.000709	0.001369	-0.003017
01343	13672317	0.216271	-9.782698	0.190758	-0.003397	-0.001515	-0.000682
01344	13672367	0.219211	-9.792125	0.189263	-0.006424	-0.000668	0.000701
01345	13672417	0.223140	-9.791595	0.157628	-0.003896	-0.000474	-0.006834
01346	13672467	0.210286	-9.789696	0.162739	-0.005844	0.001990	-0.001653
01347	13672517	0.217985	-9.787594	0.186457	-0.003494	0.000548	-0.000931
01348	13672567	0.217965	-9.788498	0.199431	-0.002564	-0.000571	-0.002158
01349	13672617	0.227929	-9.776630	0.175581	-0.003541	-0.003038	-0.000118
01350	13672667	0.234389	-9.803187	0.180621	-0.003291	0.001228	-0.001542
01351	13672717	0.227956	-9.786788	0.173220	-0.003526	0.000315	-0.003948
01352	13672767	0.223091	-9.786572	0.185842	-0.007622	0.001307	-0.004441
01353	13672817	0.195266	-9.780242	0.199228	-0.003926	-0.003210	-0.003608
01354	13672867	0.224013	-9.788344	0.178471	-0.004523	-0.000306	0.000285
01355	13672917	0.216419	-9.786108	0.165610	-0.003995	-0.001751	0.000823
01356	13672967	0.208617	-9.777677	0.181927	-0.005539	-0.000522	-0.001027
01357	13673017	0.218730	-9.773600	0.187172	-0.003128	0.002334	-0.000086
01358	13673067	0.222861	-9.777881	0.190959	-0.004083	0.000019	-0.001861
01359	13673117	0.210951	-9.771002	0.181450	-0.002870	-0.003353	-0.003614
01360	13673167	0.217302	-9.788227	0.196210	-0.006968	0.002130	-0.002930
01361	13673217	0.224528	-9.783742	0.172731	-0.005034	0.003680	-0.002158
01362	13673267	0.214325	-9.798297	0.185982	-0.003675	0.000320	0.000479
01363	13673317	0.216406	-9.793881	0.193520	0.000037	0.003188	-0.002947
01364	13673367	0.217581	-9.792268	0.181351	-0.004113	0.001023	0.000162
01365	13673417	0.229117	-9.799292	0.169878	-0.003531	-0.001156	0.002391
01366	13673467	0.220055	-9.778834	0.174070	-0.000753	0.004216	0.001453
01367	13673517	0.210229	-9.769455	0.173618	-0.001939	0.002029	-0.000830
01368	13673567	0.223240	-9.774146	0.164539	-0.006238	0.002272	-0.002646
01369	13673617	0.217099	-9.796382	0.170894	-0.004090	0.002082	-0.003742
01370	13673667	0.201028	-9.772522	0.195654	-0.003148	0.000945	0.001285
01371	13673717	0.215377	-9.786097	0.179946	-0.005362	-0.001066	0.000188
01372	13673767	0.212891	-9.771976	0.169446	-0.003123	0.001002	-0.001632
01373	13673817	0.211164	-9.770541	0.182866	-0.005303	0.000063	-0.001442
01374	13673867	0.217860	-9.794965	0.187937	-0.003301	0.003753	0.000689
01375	13673917	0.228964	-9.790097	0.188806	-0.003833	0.000155	-0.000386
01376	13673967	0.219427	-9.777454	0.176349	-0.003864	0.004220	-0.001935
01377	13674017	0.220369	-9.790928	0.173408	-0.004828	0.003132	-0.003894
01378	13674067	0.221067	-9.781492	0.177761	-0.006074	-0.000754	-0.000035
01379	13674117	0.221596	-9.794775	0.162510	-0.003462	-0.000551	-0.001581
01380	13674167	0.224180	-9.797745	0.172815	0.000202	0.001030	-0.001070
01381	13674217	0.210733	-9.788284	0.179060	-0.004829	0.002230	-0.002906
01382	13674267	0.227043	-9.783299	0.177183	-0.007170	0.003548	-0.000746
01383	13674317	0.210889	-9.786001	0.169943	-0.004519	0.001758	-0.001084
01384	13674367	0.219993	-9.798335	0.192484	-0.000891	-0.001825	-0.000538
01385	13674417	0.210014	-9.779174	0.188144	-0.004004	0.001669	-0.000668
01386	13674467	0.210366	-9.786514	0.141103	-0.005583	-0.000038	0.000708
01387	13674517	0.216028	-9.791779	0.179562	-0.002647	-0.001026	-0.002673
01388	13674567	0.227478	-9.795144	0.175831	-0.003833	0.001025	-0.002273
01389	13674617	0.223005	-9.790588	0.184541	-0.004082	-0.003208	-0.001524
01390	13674667	0.213742	-9.787104	0.182346	-0.006510	0.000913	-0.000858
01391	13674717	0.214523	-9.789458	0.181473	-0.001815	-0.002041	-0.001589
01392	13674767	0.226637	-9.793519	0.178291	-0.002788	-0.000535	0.000502
01393	13674817	0.234367	-9.777999	0.177715	-0.004587	-0.001214	0.000440
01394	13674867	0.209131	-9.797976	0.175414	-0.006497	0.001496	-0.001652
01395	13674917	0.205692	-9.788040	0.174501	-0.005063	0.000586	-0.000346
01396	13674967	0.227928	-9.797153	0.183791	-0.003027	0.000941	-0.002182
01397	13675017	0.217076	-9.763713	0.175904	-0.002901	-0.001153	-0.001262
01398	13675067	0.220023	-9.793308	0.174169	-0.004682	-0.000378	-0.000834
01399	13675117	0.203869	-9.772626	0.173359	-0.003151	-0.000251	-0.000902
01400	13675167	0.226564	-9.786716	0.198092	-0.005414	-0.000718	-0.003240
01401	13675217	0.216758	-9.788191	0.193670	-0.003847	0.000675	0.000127
01402	13675267	0.205353	-9.772001	0.196023	-0.006071	0.002342	0.000113
01403	13675317	0.223188	-9.798884	0.184289	-0.003694	0.005900	-0.002507
01404	13675367	0.216803	-9.786769	0.162480	-0.005279	0.002156	-0.003994
01405	13675417	0.206622	-9.800735	0.183329	-0.006298	0.000911	-0.004639
01406	13675467	0.200361	-9.776212	0.187694	-0.006276	0.002266	-0.004917
01407	13675517	0.200662	-9.771001	0.173571	-0.003777	-0.000419	0.000636
01408	13675567	0.219144	-9.783034	0.184261	-0.005767	-0.000232	0.000767
01409	13675617	0.233253	-9.783021	0.179414	-0.004838	0.003622	-0.002323
01410	13675667	0.231803	-9.785049	0.186903	-0.002991	-0.000057	-0.000392
01411	13675717	0.227505	-9.760416	0.185610	-0.005631	0.003347	-0.002738
01412	13675767	0.223565	-9.788262	0.172770	-0.003608	0.000031	-0.000196
01413	13675817	0.211099	-9.784270	0.180702	-0.002261	0.000891	-0.002979
01414	13675867	0.228277	-9.792280	0.190818	-0.009531	-0.000820	-0.001855
01415	13675917	0.211950	-9.775500	0.166584	-0.003507	0.000034	0.000799
01416	13675967	0.233112	-9.764717	0.161474	-0.002175	-0.000823	-0.000849
01417	13676017	0.226786	-9.782378	0.178201	-0.005912	-0.000913	-0.000613
01418	13676067	0.210409	-9.771790	0.170966	-0.001310	-0.000504	0.002266
01419	13676117	0.196454	-9.785821	0.208576	-0.004716	-0.001157	-0.001673
01420	13676167	0.218319	-9.780402	0.181957	-0.002404	0.001762	0.000644
01421	13676217	0.216125	-9.780878	0.180179	-0.005612	0.003701	-0.002638
01422	13676267	0.214340	-9.777726	0.190024	-0.004397	0.002757	-0.002392
01423	13676317	0.214588	-9.797104	0.170181	-0.004571	0.000240	-0.000351
01424	13676367	0.215697	-9.780553	0.205603	-0.006793	0.000646	-0.002334
01425	13676417	0.221910	-9.777109	0.171288	-0.002967	-0.000422	-0.005714
01426	13676467	0.210063	-9.793019	0.177982	0.001279	0.000241	-0.002641
01427	13676517	0.209722	-9.795384	0.193021	-0.002641	0.000048	-0.000650
01428	13676567	0.213007	-9.790165	0.163863	-0.004339	0.002853	-0.003318
01429	13676617	0.218584	-9.774222	0.196985	-0.005203	0.001804	-0.002811
01430	13676667	0.223644	-9.795601	0.172115	-0.002135	-0.001945	0.000335
01431	13676717	0.219113	-9.786199	0.189451	-0.007783	0.001965	0.002260
01432	13676767	0.209852	-9.794859	0.174041	-0.003785	-0.001394	-0.001199
01433	13676817	0.209107	-9.772650	0.179310	-0.002749	0.001169	-0.002659
01434	13676867	0.213322	-9.793812	0.186205	-0.004811	0.000787	0.000229
01435	13676917	0.220454	-9.790773	0.179403	-0.004885	0.001039	-0.000382
01436	13676967	0.218095	-9.780659	0.198624	-0.005377	0.001515	-0.001206
01437	13677017	0.220534	-9.789545	0.176562	-0.005277	-0.000102	-0.004616
01438	13677067	0.205755	-9.768383	0.192986	-0.004008	-0.001202	0.001883
01439	13677117	0.221061	-9.779393	0.165311	-0.004672	-0.000440	0.001664
01440	13677167	0.212948	-9.785677	0.196541	-0.003590	0.002578	-0.002842
01441	13677217	0.212890	-9.799472	0.168205	-0.006108	0.001802	0.003281
01442	13677267	0.210457	-9.792987	0.191774	-0.002632	-0.000570	-0.002220
01443	13677317	0.219121	-9.791229	0.161915	-0.006288	-0.000146	0.000418
01444	13677367	0.222562	-9.781427	0.174974	-0.001955	0.000411	-0.000842
01445	13677417	0.222181	-9.795146	0.187366	-0.004685	-0.002316	-0.001390
01446	13677467	0.212858	-9.788196	0.175101	-0.008275	0.003012	-0.000905
01447	13677517	0.223097	-9.790920	0.175568	-0.004286	-0.000495	0.000730
01448	13677567	0.220967	-9.781034	0.162950	-0.004108	0.001860	-0.001658
01449	13677617	0.217317	-9.799856	0.197021	-0.003156	0.001071	0.000226
01450	13677667	0.213154	-9.777886	0.168959	-0.003854	0.002096	0.001259
01451	13677717	0.232261	-9.782827	0.181145	-0.001979	0.000189	0.000151
01452	13677767	0.215641	-9.784122	0.175019	-0.002342	0.000339	-0.002249
01453	13677817	0.227639	-9.800179	0.180186	-0.003602	0.002394	0.002446
01454	13677867	0.207301	-9.777545	0.203500	-0.002977	0.004758	0.000309
01455	13677917	0.206462	-9.796638	0.194893	-0.004078	0.000466	-0.004099
01456	13677967	0.221371	-9.798645	0.183033	-0.006644	-0.001454	-0.005163
01457	13678017	0.225616	-9.791781	0.187313	-0.005977	0.000215	-0.000218
01458	13678067	0.200675	-9.790244	0.190843	-0.007068	0.001063	-0.002871
01459	13678117	0.215224	-9.790531	0.174681	-0.006471	-0.000342	0.000482
01460	13678167	0.218494	-9.797609	0.174930	-0.005627	-0.000981	-0.002474
01461	13678217	0.216516	-9.783834	0.187813	-0.005992	0.002831	0.000050
01462	13678267	0.212834	-9.783134	0.169601	-0.005797	-0.000495	-0.001316
01463	13678317	0.233090	-9.798738	0.197823	-0.005052	0.001328	-0.000956
01464	13678367	0.217746	-9.779845	0.160725	-0.006434	0.001859	0.002000
01465	13678417	0.237398	-9.794699	0.186137	-0.003985	0.000927	-0.000258
01466	13678467	0.207329	-9.765714	0.174506	-0.003986	0.004189	-0.000010
01467	13678517	0.245227	-9.790069	0.184427	-0.001995	0.002734	-0.001696
01468	13678567	0.221836	-9.778590	0.205617	-0.003043	0.001524	-0.001089
01469	13678617	0.214970	-9.794918	0.166520	-0.006160	0.002754	-0.004279
01470	13678667	0.213130	-9.774025	0.195052	-0.003994	0.001116	-0.003266
01471	13678717	0.213760	-9.786601	0.180508	-0.003773	0.001384	-0.000285
01472	13678767	0.217123	-9.796844	0.201141	0.000112	-0.001457	-0.003227
01473	13678817	0.207855	-9.787416	0.166957	0.000843	0.002274	-0.000162
01474	13678867	0.209976	-9.779806	0.167342	-0.003254	0.002101	-0.000251
01475	13678917	0.225162	-9.806471	0.185266	-0.000809	-0.000472	-0.001678
01476	13678967	0.216779	-9.794350	0.177610	-0.002277	0.001437	-0.002501
01477	13679017	0.213676	-9.777061	0.176878	-0.003751	0.001477	-0.002395
01478	13679067	0.217478	-9.776819	0.163851	-0.003964	0.002385	0.000139
01479	13679117	0.238148	-9.776883	0.185371	-0.004563	0.000110	-0.000007
01480	13679167	0.220447	-9.772498	0.178821	0.000415	0.000688	0.000530
01481	13679217	0.224787	-9.779799	0.194030	-0.004181	0.003117	-0.001814
01482	13679267	0.211997	-9.795319	0.175043	-0.002150	0.001445	-0.002436
01483	13679317	0.203014	-9.783089	0.190372	-0.003147	0.001580	-0.003491
01484	13679367	0.204451	-9.782251	0.183189	-0.001983	-0.001983	-0.003739
01485	13679417	0.237100	-9.784097	0.175086	-0.003827	-0.001202	-0.002284
01486	13679467	0.222295	-9.786481	0.179220	-0.004236	0.000792	-0.000738
01487	13679517	0.210765	-9.778903	0.202317	-0.003381	0.000705	-0.003942
01488	13679567	0.223028	-9.773722	0.183603	-0.001214	0.002595	0.001352
01489	13679617	0.213301	-9.789065	0.186004	-0.001997	0.001637	-0.002051
01490	13679667	0.228390	-9.800335	0.206096	-0.001987	0.002149	-0.005701
01491	13679717	0.207391	-9.776237	0.180153	0.000057	0.000745	0.000408
01492	13679767	0.211512	-9.797837	0.184886	-0.003101	0.003362	-0.001433
01493	13679817	0.216351	-9.784979	0.185015	-0.004281	0.001984	-0.003615
01494	13679867	0.216530	-9.771228	0.180622	-0.005199	0.000609	-0.004358
01495	13679917	0.213153	-9.781592	0.183699	-0.006217	0.002597	-0.003157
01496	13679967	0.214111	-9.791307	0.184715	-0.003123	-0.000986	0.000662
01497	13680017	0.225375	-9.796625	0.183826	-0.007534	-0.000066	0.000421
01498	13680067	0.212852	-9.784717	0.186444	-0.001981	-0.000749	-0.001009
01499	13680117	0.202658	-9.764571	0.164141	-0.004048	0.001031	0.001666
01500	13680167	0.212134	-9.765096	0.190270	-0.002446	0.001863	-0.000768
01501	13680217	0.212905	-9.769186	0.179156	-0.005517	0.000744	-0.001088
01502	13680267	0.211265	-9.771835	0.164765	-0.005808	-0.001529	-0.004397
01503	13680317	0.218609	-9.778861	0.180601	-0.005147	0.003263	-0.001939
01504	13680367	0.223424	-9.794825	0.172941	-0.002928	0.002686	-0.004482
01505	13680417	0.221653	-9.781372	0.191853	-0.004711	-0.000440	-0.000486
01506	13680467	0.218645	-9.788811	0.179577	-0.005902	0.001932	-0.000472
01507	13680517	0.225686	-9.792933	0.175847	0.000808	0.001016	-0.001328
01508	13680567	0.211084	-9.778258	0.150144	-0.004251	0.000219	0.000417
01509	13680617	0.224448	-9.771659	0.179500	0.000747	-0.002216	-0.001568
01510	13680667	0.211415	-9.783257	0.183054	-0.003505	0.000942	-0.000291
01511	13680717	0.219548	-9.777132	0.176176	-0.006264	0.001016	-0.002721
01512	13680767	0.215916	-9.782398	0.192197	-0.001406	0.002266	-0.001571
01513	13680817	0.224623	-9.785851	0.177255	-0.002255	-0.002266	-0.000762
01514	13680867	0.204341	-9.785473	0.182652	-0.002348	0.004930	0.000017
01515	13680917	0.233249	-9.790595	0.184125	-0.004848	0.003882	-0.001425
01516	13680967	0.243428	-9.789237	0.196620	-0.001292	0.003522	-0.003330
01517	13681017	0.197608	-9.782643	0.193460	-0.001493	-0.001390	-0.004087
01518	13681067	0.220107	-9.795557	0.171913	-0.003380	-0.001520	-0.005658
01519	13681117	0.217064	-9.774124	0.179869	-0.004069	0.000640	0.000737
01520	13681167	0.207066	-9.777883	0.184726	-0.005063	-0.000507	-0.001637
01521	13681217	0.200460	-9.758107	0.173775	-0.001764	-0.000617	-0.001616
01522	13681267	0.206291	-9.788827	0.186549	-0.000430	0.003835	-0.001340
01523	13681317	0.217343	-9.789210	0.204553	-0.002734	0.000726	-0.001736
01524	13681367	0.219113	-9.786839	0.190277	0.001806	0.003970	-0.002050
01525	13681417	0.217717	-9.790739	0.180752	-0.006331	0.002410	0.000206
01526	13681467	0.216270	-9.800130	0.173217	-0.004095	0.002217	-0.001595
01527	13681517	0.210060	-9.789614	0.193754	-0.007045	0.005720	-0.001121
01528	13681567	0.209457	-9.811696	0.179535	-0.000903	-0.000663	-0.001168
01529	13681617	0.214767	-9.774766	0.172974	-0.001761	-0.000780	-0.001842
01530	13681667	0.207291	-9.777561	0.195059	-0.003397	-0.000581	-0.003056
01531	13681717	0.232596	-9.795297	0.180521	-0.004157	-0.000885	-0.001965
01532	13681767	0.216225	-9.780978	0.177483	-0.004201	0.003836	-0.000722
01533	13681817	0.209883	-9.779305	0.155649	-0.005572	0.003582	-0.001359
01534	13681867	0.210622	-9.778743	0.166084	-0.002278	0.002377	-0.003071
01535	13681917	0.211632	-9.776071	0.178442	-0.005747	0.002127	-0.000598
01536	13681967	0.215908	-9.785399	0.155697	-0.003378	0.003105	-0.000407
01537	13682017	0.223543	-9.791788	0.192546	-0.005120	-0.001566	0.002551
01538	13682067	0.222518	-9.774341	0.166743	-0.009657	0.001956	-0.003953
01539	13682117	0.222656	-9.790967	0.184004	-0.001833	0.000247	-0.005782
01540	13682167	0.233668	-9.796162	0.191783	-0.004087	0.000153	-0.000579
01541	13682217	0.221815	-9.759572	0.193489	-0.004221	0.002380	-0.001596
01542	13682267	0.212076	-9.790744	0.176298	-0.005418	0.003812	-0.001582
01543	13682317	0.210965	-9.768375	0.186887	-0.003265	0.003658	0.000400
01544	13682367	0.225882	-9.789227	0.181446	-0.006183	0.002503	-0.002359
01545	13682417	0.226639	-9.777367	0.182509	-0.001705	0.000548	-0.001997
01546	13682467	0.232070	-9.794002	0.173277	-0.004975	0.001951	0.000230
01547	13682517	0.205285	-9.779100	0.154563	-0.004161	0.000575	0.000898
01548	13682567	0.203466	-9.780131	0.173345	-0.007713	0.000213	-0.004064
01549	13682617	0.228165	-9.797353	0.171838	-0.006608	0.000782	-0.002880
01550	13682667	0.228201	-9.803972	0.185761	-0.005868	-0.000562	-0.004011
01551	13682717	0.198538	-9.766994	0.179191	-0.006564	0.006494	-0.004993
01552	13682767	0.220129	-9.797426	0.185609	-0.004664	0.002277	0.001036
01553	13682817	0.226210	-9.799879	0.180555	-0.004842	-0.002410	0.000111
01554	13682867	0.222221	-9.759053	0.175575	-0.003415	-0.001328	-0.004084
01555	13682917	0.230510	-9.777204	0.159241	-0.003228	0.000405	0.001661
01556	13682967	0.208750	-9.785895	0.166919	-0.006222	-0.001303	-0.001483
01557	13683017	0.210266	-9.776461	0.187136	-0.001841	0.000442	-0.005584
01558	13683067	0.239696	-9.775940	0.192954	-0.004446	0.002307	-0.002334
01559	13683117	0.218894	-9.791896	0.179602	-0.005879	0.003291	0.000723
01560	13683167	0.229019	-9.801848	0.187711	-0.004785	0.000951	0.000798
01561	13683217	0.216949	-9.784349	0.181023	-0.005292	0.003780	-0.001998
01562	13683267	0.223922	-9.775011	0.196462	-0.001528	0.000838	-0.002827
01563	13683317	0.214291	-9.777227	0.178311	-0.008614	0.001460	-0.002198
01564	13683367	0.214823	-9.772155	0.188289	-0.005209	-0.000831	-0.000328
01565	13683417	0.210072	-9.763783	0.164875	-0.001747	-0.000865	0.002612
01566	13683467	0.219555	-9.787137	0.179628	-0.003450	0.001266	0.000799
01567	13683517	0.213672	-9.791636	0.174183	-0.003058	0.002051	0.000614
01568	13683567	0.218846	-9.783032	0.189226	-0.004180	0.005092	-0.002316
01569	13683617	0.212515	-9.786170	0.172565	-0.001660	0.003164	-0.002401
01570	13683667	0.232167	-9.787898	0.193267	-0.003485	-0.000674	0.000313
01571	13683717	0.229268	-9.773266	0.180048	-0.004444	0.000076	-0.003468
01572	13683767	0.241729	-9.797530	0.163148	-0.007113	0.000551	-0.001055
01573	13683817	0.228944	-9.797643	0.191510	-0.005239	0.002234	0.000140
01574	13683867	0.193783	-9.771492	0.174661	-0.005574	-0.000682	-0.002599
01575	13683917	0.216577	-9.804448	0.176336	-0.001743	0.002649	-0.001795
01576	13683967	0.212973	-9.781587	0.168230	-0.002483	-0.000144	-0.000840
01577	13684017	0.214151	-9.788721	0.185393	-0.003657	0.002645	-0.001661
01578	13684067	0.221756	-9.780528	0.167362	-0.005454	0.000676	-0.002658
01579	13684117	0.211083	-9.797286	0.168924	-0.002828	0.002398	-0.002909
01580	13684167	0.197696	-9.771659	0.173499	-0.003809	-0.000479	0.002335
01581	13684217	0.217665	-9.794942	0.191829	-0.005459	0.001039	0.001443
01582	13684267	0.203193	-9.756428	0.190220	-0.004932	0.001593	-0.001597
01583	13684317	0.213804	-9.774457	0.167801	-0.006727	0.003624	-0.000780
01584	13684367	0.220398	-9.789991	0.180749	-0.007679	0.000248	-0.002591
01585	13684417	0.223896	-9.776444	0.166092	-0.007939	0.001244	-0.003158
01586	13684467	0.209906	-9.770517	0.170926	-0.000246	-0.000007	-0.000941
01587	13684517	0.224696	-9.781617	0.194895	-0.004393	-0.001401	0.000150
01588	13684567	0.215067	-9.771563	0.196772	-0.001804	0.000647	-0.002667
01589	13684617	0.214688	-9.775776	0.176703	-0.007997	0.002608	0.000852
01590	13684667	0.204003	-9.771280	0.185032	-0.001806	0.001410	-0.004875
01591	13684717	0.236349	-9.802265	0.173974	-0.006468	0.000236	-0.003590
01592	13684767	0.218268	-9.779851	0.182726	-0.004514	-0.001629	0.000340
01593	13684817	0.237567	-9.794194	0.174613	-0.001246	-0.001831	0.000392
01594	13684867	0.214146	-9.791114	0.186854	-0.003583	0.001357	-0.001476
01595	13684917	0.223493	-9.776196	0.180834	-0.004425	-0.001498	-0.000492
01596	13684967	0.206003	-9.774632	0.188313	-0.005363	-0.001159	-0.000069
01597	13685017	0.225101	-9.780175	0.178635	-0.004508	-0.003055	-0.002715
01598	13685067	0.208532	-9.777960	0.175373	-0.004564	0.000019	0.000542
01599	13685117	0.232784	-9.789339	0.178813	-0.004859	0.000104	-0.002056
01600	13685167	0.215496	-9.773653	0.194090	-0.003490	0.003523	-0.000499
01601	13685217	0.204686	-9.773361	0.181853	-0.006188	0.001895	-0.001305
01602	13685267	0.223777	-9.794274	0.168600	-0.003879	0.000548	-0.000099
01603	13685317	0.225187	-9.790627	0.179034	-0.006032	0.002796	-0.003257
01604	13685367	0.225999	-9.786924	0.186035	-0.005784	0.001094	-0.000955
01605	13685417	0.219266	-9.775307	0.181139	-0.003209	0.001421	-0.004135
01606	13685467	0.189413	-9.772177	0.184553	-0.003316	-0.003095	-0.000922
01607	13685517	0.217303	-9.777718	0.150845	-0.006106	0.005314	-0.001669
01608	13685567	0.238606	-9.798750	0.193888	-0.004809	-0.000771	-0.005236
01609	13685617	0.216504	-9.759252	0.168560	-0.007065	0.002199	-0.002519
01610	13685667	0.215364	-9.786663	0.191621	-0.005640	0.002506	-0.004318
01611	13685717	0.234356	-9.795757	0.165724	-0.001477	0.004523	-0.002236
01612	13685767	0.225079	-9.799782	0.172860	-0.004088	0.002187	-0.000829
01613	13685817	0.204679	-9.772074	0.190737	-0.003643	-0.001036	-0.002897
01614	13685867	0.221960	-9.785736	0.182927	-0.006875	0.001302	-0.000471
01615	13685917	0.205696	-9.790544	0.173479	-0.003026	0.003880	-0.003065
01616	13685967	0.199910	-9.788447	0.186920	-0.005376	0.000027	-0.005092
01617	13686017	0.226145	-9.754562	0.180107	-0.003931	0.003417	-0.001363
01618	13686067	0.194808	-9.784011	0.186959	-0.005725	0.003289	-0.002351
01619	13686117	0.214447	-9.793133	0.164089	-0.001498	0.002270	0.001574
01620	13686167	0.224397	-9.798283	0.183476	-0.003751	0.002318	-0.004543
01621	13686217	0.219543	-9.779625	0.184421	-0.003862	0.002991	-0.003552
01622	13686267	0.215435	-9.785037	0.194409	-0.000111	-0.004292	0.000219
01623	13686317	0.209892	-9.787126	0.186045	-0.007118	0.000679	-0.003903
01624	13686367	0.211537	-9.802713	0.167503	-0.002283	-0.000656	-0.002674
01625	13686417	0.231526	-9.794351	0.195358	-0.004135	0.001413	-0.001279
01626	13686467	0.203965	-9.768753	0.174348	-0.006532	-0.001734	-0.002281
01627	13686517	0.225317	-9.780843	0.175568	-0.004853	0.002944	-0.002394
01628	13686567	0.239103	-9.786482	0.183383	-0.003473	-0.000094	0.000408
01629	13686617	0.227449	-9.794869	0.163869	-0.001562	0.000099	-0.001071
01630	13686667	0.215994	-9.781724	0.179386	-0.004911	-0.001153	-0.000074
01631	13686717	0.219587	-9.777728	0.184923	-0.003913	-0.000289	0.001341
01632	13686767	0.214727	-9.790565	0.182410	-0.001356	0.001519	-0.003305
01633	13686817	0.219358	-9.778992	0.173633	-0.003941	0.000282	-0.003016
01634	13686867	0.217776	-9.799994	0.165493	-0.005800	-0.000493	-0.001385
01635	13686917	0.209719	-9.773369	0.171056	-0.003746	0.002584	-0.001015
01636	13686967	0.211478	-9.775480	0.155412	-0.007657	0.000840	0.001642
01637	13687017	0.229017	-9.782887	0.172713	-0.000314	0.000292	0.002199
01638	13687067	0.208819	-9.764628	0.187780	-0.004553	-0.002661	-0.001651
01639	13687117	0.215913	-9.792462	0.182744	-0.006201	-0.001118	-0.003853
01640	13687167	0.196854	-9.788935	0.200991	-0.007155	0.003134	-0.001067
01641	13687217	0.223300	-9.791694	0.185537	-0.006860	0.002716	-0.002482
01642	13687267	0.217146	-9.788227	0.201878	-0.005174	0.001971	-0.002329
01643	13687317	0.208499	-9.778524	0.181295	-0.005607	0.000774	0.000324
01644	13687367	0.216427	-9.790052	0.165532	-0.003315	0.002845	-0.001945
01645	13687417	0.222034	-9.792548	0.178972	-0.002731	-0.000239	0.001207
01646	13687467	0.205403	-9.775764	0.184309	-0.002352	0.001796	-0.001921
01647	13687517	0.218920	-9.771895	0.190181	-0.003470	-0.001387	-0.002322
01648	13687567	0.222502	-9.787347	0.180117	-0.002722	0.005635	-0.000302
01649	13687617	0.188343	-9.784896	0.178146	-0.002892	0.001919	0.000807
01650	13687667	0.223152	-9.777480	0.202278	-0.008429	0.000788	-0.001112
01651	13687717	0.208105	-9.767989	0.190051	-0.001808	0.000742	-0.001702
01652	13687767	0.221401	-9.791492	0.186264	-0.006587	-0.001154	-0.003947
01653	13687817	0.206414	-9.779119	0.172037	-0.003435	0.001784	-0.000122
01654	13687867	0.202686	-9.773263	0.173968	-0.004303	0.003327	0.004629
01655	13687917	0.217002	-9.773106	0.175635	-0.001825	0.001720	0.002468
01656	13687967	0.206185	-9.780907	0.180196	-0.002866	0.000981	0.000290
01657	13688017	0.228407	-9.787816	0.184619	-0.004456	0.001635	-0.000539
01658	13688067	0.227948	-9.783044	0.197756	-0.006324	0.001185	0.001258
01659	13688117	0.211836	-9.778882	0.191643	-0.005441	0.000417	-0.001793
01660	13688167	0.196043	-9.793825	0.162938	-0.006650	0.003009	-0.003216
01661	13688217	0.205703	-9.781265	0.187253	-0.006992	-0.002222	-0.000940
01662	13688267	0.210037	-9.781147	0.183034	-0.004490	-0.002600	-0.002900
01663	13688317	0.207284	-9.780405	0.163660	-0.004938	-0.000347	-0.001126
01664	13688367	0.214800	-9.781274	0.179967	-0.002669	0.001728	-0.000934
01665	13688417	0.230999	-9.769880	0.192958	-0.004858	0.000076	-0.000386
