PacketCounter	SampleTimeFine	Acc_X	Acc_Y	Acc_Z	Gyr_X	Gyr_Y	Gyr_Z
00001	12357467	0.228276	-9.802629	0.176264	-0.001182	0.000728	0.003178
00002	12357517	0.223533	-9.797601	0.184614	-0.005221	0.001585	-0.002003
00003	12357567	0.216246	-9.787076	0.188631	0.000976	0.005051	-0.002415
00004	12357617	0.223664	-9.778034	0.177721	-0.002431	-0.001857	-0.003629
00005	12357667	0.202422	-9.768848	0.179777	-0.000717	-0.000109	-0.001153
00006	12357717	0.214127	-9.772582	0.185237	0.000260	0.001357	-0.002272
00007	12357767	0.218496	-9.797227	0.187015	-0.004728	-0.000762	-0.001279
00008	12357817	0.219932	-9.798102	0.183446	-0.003909	0.001708	-0.001074
00009	12357867	0.224720	-9.810307	0.163186	0.000551	0.000042	-0.001092
00010	12357917	0.208331	-9.797272	0.181490	-0.008462	-0.001314	-0.002967
00011	12357967	0.227036	-9.793981	0.198748	-0.003619	0.004414	-0.004715
00012	12358017	0.206570	-9.792142	0.186124	-0.004309	0.001084	-0.001972
00013	12358067	0.215627	-9.779760	0.175348	-0.002374	0.000770	0.001255
00014	12358117	0.205521	-9.774375	0.187259	-0.007576	0.000449	0.000022
00015	12358167	0.220504	-9.790760	0.184912	-0.003248	0.002106	0.000270
00016	12358217	0.206212	-9.764915	0.174178	-0.003703	0.002425	0.000340
00017	12358267	0.204485	-9.774447	0.175281	-0.007308	0.003035	-0.000447
00018	12358317	0.206736	-9.781245	0.172006	-0.003912	0.001769	-0.001135
00019	12358367	0.219349	-9.794781	0.182430	-0.006719	0.000630	0.001170
00020	12358417	0.212928	-9.778893	0.193493	-0.005659	-0.000350	0.001997
00021	12358467	0.231201	-9.791872	0.172855	-0.003425	0.000357	-0.002619
00022	12358517	0.221348	-9.811971	0.176287	-0.001528	0.002330	-0.000980
00023	12358567	0.218195	-9.799625	0.173134	-0.002223	-0.000236	-0.003365
00024	12358617	0.208101	-9.789147	0.193355	-0.004351	0.000533	-0.000725
00025	12358667	0.214887	-9.791475	0.180448	-0.000479	0.001413	-0.000639
00026	12358717	0.220495	-9.786849	0.176916	-0.006592	0.004827	0.000264
00027	12358767	0.221554	-9.770532	0.181459	-0.005431	0.002094	-0.002923
00028	12358817	0.229207	-9.801105	0.185824	-0.004531	0.001411	0.001903
00029	12358867	0.223036	-9.791743	0.173530	-0.006938	-0.000867	-0.002459
00030	12358917	0.224757	-9.808247	0.200057	-0.000566	0.001221	0.000004
00031	12358967	0.211959	-9.790576	0.196671	-0.004302	-0.001305	-0.002789
00032	12359017	0.217258	-9.783021	0.172445	-0.003953	0.000832	-0.002939
00033	12359067	0.243708	-9.791252	0.204689	-0.002371	0.000672	0.000292
00034	12359117	0.204097	-9.781444	0.198596	-0.003832	0.001617	0.001620
00035	12359167	0.223009	-9.776814	0.190460	-0.001672	0.004748	-0.002379
00036	12359217	0.224537	-9.786069	0.191766	-0.005702	-0.000424	-0.002459
00037	12359267	0.209618	-9.771150	0.196420	-0.004815	-0.001351	-0.005093
00038	12359317	0.210314	-9.776008	0.189009	-0.001974	0.001226	-0.000343
00039	12359367	0.215124	-9.796376	0.190954	-0.002325	0.004383	-0.000297
00040	12359417	0.207772	-9.789996	0.202178	-0.007291	-0.001545	0.000138
00041	12359467	0.218616	-9.797563	0.177993	-0.001296	-0.000283	-0.004169
00042	12359517	0.205472	-9.774188	0.205548	-0.005734	0.001871	-0.000425
00043	12359567	0.213981	-9.784825	0.194495	-0.003440	0.001975	-0.001937
00044	12359617	0.217998	-9.779847	0.198180	-0.000960	0.000333	-0.003849
00045	12359667	0.206852	-9.786726	0.189479	-0.006314	0.000054	0.000400
00046	12359717	0.223100	-9.783495	0.192687	-0.007071	0.002455	-0.002570
00047	12359767	0.233164	-9.788565	0.191131	-0.001038	0.002754	-0.003419
00048	12359817	0.217864	-9.777368	0.191191	-0.002637	0.001492	-0.005565
00049	12359867	0.214763	-9.776506	0.163518	-0.005232	0.002134	0.000283
00050	12359917	0.203299	-9.765201	0.159570	-0.004207	-0.003049	-0.000697
00051	12359967	0.209260	-9.788709	0.165510	-0.004871	0.001745	-0.002756
00052	12360017	0.201488	-9.787313	0.176807	-0.002550	0.005633	0.001074
00053	12360067	0.206683	-9.784020	0.182844	-0.002448	-0.000212	-0.001968
00054	12360117	0.220804	-9.788668	0.171928	-0.003850	0.005127	0.000273
00055	12360167	0.217034	-9.793021	0.189942	-0.004192	0.002598	-0.001470
00056	12360217	0.216471	-9.793852	0.166720	-0.002390	-0.001924	-0.002206
00057	12360267	0.238100	-9.785164	0.173964	-0.006081	-0.000337	0.000086
00058	12360317	0.213869	-9.771754	0.192876	-0.002627	0.001658	-0.001962
00059	12360367	0.215953	-9.776066	0.198298	-0.005108	0.004652	0.001428
00060	12360417	0.226033	-9.779315	0.185333	-0.004281	0.000637	0.001946
00061	12360467	0.220189	-9.792997	0.175435	-0.005802	0.002924	-0.002875
00062	12360517	0.215329	-9.783535	0.188928	-0.005481	0.001763	-0.003847
00063	12360567	0.210457	-9.767633	0.184844	-0.007237	0.003065	0.001007
00064	12360617	0.227001	-9.798109	0.205201	-0.005192	0.001741	-0.000960
00065	12360667	0.230876	-9.784107	0.192565	-0.001483	0.001004	-0.000048
00066	12360717	0.240921	-9.790585	0.190421	-0.000687	0.003507	0.002976
00067	12360767	0.221942	-9.795354	0.175949	-0.004827	-0.002035	-0.004441
00068	12360817	0.211457	-9.779170	0.195247	-0.003856	0.001387	0.000571
00069	12360867	0.227129	-9.801680	0.190846	-0.005653	0.000215	-0.000935
00070	12360917	0.217581	-9.779369	0.182519	-0.001910	0.003215	-0.002471
00071	12360967	0.209108	-9.769612	0.188637	-0.000161	0.000506	-0.002422
00072	12361017	0.224058	-9.796276	0.175677	-0.005414	-0.001522	-0.001809
00073	12361067	0.220624	-9.794847	0.188065	-0.002533	0.000754	-0.001647
00074	12361117	0.228452	-9.791580	0.182985	-0.001259	0.002072	0.000313
00075	12361167	0.237433	-9.810841	0.192942	-0.002361	0.003538	0.000388
00076	12361217	0.211635	-9.790216	0.204367	-0.003890	0.005415	-0.000751
00077	12361267	0.223214	-9.786882	0.212378	-0.005784	0.000179	-0.002056
00078	12361317	0.217773	-9.775878	0.186584	-0.005117	0.005779	-0.001900
00079	12361367	0.221191	-9.781956	0.183159	-0.004838	0.001814	-0.001439
00080	12361417	0.215776	-9.773557	0.172614	-0.005624	0.001017	-0.005355
00081	12361467	0.225352	-9.793126	0.187947	-0.004009	0.002791	-0.002754
00082	12361517	0.197343	-9.765220	0.186084	-0.006670	-0.001702	0.000852
00083	12361567	0.220493	-9.768090	0.191366	-0.002630	-0.001381	-0.002075
00084	12361617	0.212462	-9.797576	0.189554	-0.008819	0.000392	0.000997
00085	12361667	0.206401	-9.799131	0.177299	-0.003479	0.001359	0.000028
00086	12361717	0.222909	-9.796614	0.166259	-0.001513	-0.002455	-0.001859
00087	12361767	0.216129	-9.784769	0.192779	-0.005101	0.002131	-0.000864
00088	12361817	0.211650	-9.788285	0.186588	-0.004717	0.000367	0.003006
00089	12361867	0.219474	-9.791492	0.169783	-0.003395	0.003677	-0.002205
00090	12361917	0.219791	-9.778736	0.204195	-0.006448	-0.000959	-0.001840
00091	12361967	0.205222	-9.782106	0.180641	-0.004485	0.000625	-0.001863
00092	12362017	0.209687	-9.769038	0.167168	-0.004853	0.003460	-0.000662
00093	12362067	0.210527	-9.781393	0.184163	-0.006112	-0.000604	-0.003503
00094	12362117	0.221922	-9.789240	0.195024	-0.001768	0.002836	-0.001891
00095	12362167	0.205837	-9.789659	0.178514	-0.002930	0.001170	-0.000807
00096	12362217	0.218294	-9.799098	0.185114	-0.005516	0.000894	-0.001766
00097	12362267	0.218075	-9.801014	0.186778	-0.005482	-0.001104	-0.000688
00098	12362317	0.240492	-9.799030	0.199119	-0.005337	0.002650	0.001349
00099	12362367	0.224333	-9.793962	0.210830	0.000471	0.002546	-0.004371
00100	12362417	0.234206	-9.783965	0.201415	-0.000993	0.000684	-0.000820
00101	12362467	0.215439	-9.787076	0.187808	-0.001704	0.006133	-0.000654
00102	12362517	0.225289	-9.785852	0.192928	-0.007357	0.002541	-0.003066
00103	12362567	0.214450	-9.787984	0.168626	-0.003354	0.003351	-0.001851
00104	12362617	0.216748	-9.773043	0.186614	-0.001927	0.004960	-0.002363
00105	12362667	0.244346	-9.771300	0.188071	-0.005335	-0.000844	-0.002161
00106	12362717	0.228310	-9.790640	0.198732	-0.004277	-0.003891	-0.001089
00107	12362767	0.216759	-9.795707	0.194941	-0.005986	0.001793	-0.001057
00108	12362817	0.210813	-9.780620	0.196197	-0.002861	0.001173	0.000762
00109	12362867	0.225649	-9.798196	0.194210	-0.003311	0.001899	-0.003145
00110	12362917	0.224050	-9.793163	0.189945	-0.003267	0.000978	0.002202
00111	12362967	0.218555	-9.782836	0.177019	-0.003407	0.000000	-0.000302
00112	12363017	0.203972	-9.784494	0.196059	-0.003443	0.001290	0.000378
00113	12363067	0.218087	-9.781919	0.178351	-0.006338	-0.000505	-0.001162
00114	12363117	0.218536	-9.797659	0.168771	-0.006608	0.000106	0.000095
00115	12363167	0.232422	-9.784619	0.181028	-0.002741	0.001275	-0.000269
00116	12363217	0.222600	-9.783839	0.183718	-0.001113	0.001461	0.000921
00117	12363267	0.208073	-9.784171	0.193616	-0.000942	0.003979	-0.001504
00118	12363317	0.212575	-9.787530	0.168857	-0.004797	-0.000675	-0.002576
00119	12363367	0.214841	-9.788573	0.176813	-0.002279	0.000960	0.001687
00120	12363417	0.224960	-9.798801	0.186813	-0.002079	0.002542	-0.000355
00121	12363467	0.211410	-9.802409	0.194668	-0.006811	0.000193	-0.003305
00122	12363517	0.220826	-9.790144	0.175554	-0.002357	0.001346	-0.000170
00123	12363567	0.208887	-9.768456	0.175128	-0.004153	-0.000563	-0.000656
00124	12363617	0.218327	-9.775886	0.172118	-0.005523	0.004382	-0.000306
00125	12363667	0.205486	-9.764350	0.183023	-0.004104	0.002054	-0.000317
00126	12363717	0.218700	-9.773356	0.177635	-0.005934	0.000113	-0.001255
00127	12363767	0.208800	-9.784901	0.195204	-0.006347	-0.000120	-0.001831
00128	12363817	0.220106	-9.788710	0.174034	-0.005304	-0.000710	-0.000876
00129	12363867	0.210246	-9.786662	0.187639	-0.001942	0.000250	-0.000884
00130	12363917	0.227777	-9.800367	0.183246	-0.000936	-0.000077	0.001869
00131	12363967	0.224837	-9.792049	0.179360	-0.002884	0.002852	0.000991
00132	12364017	0.216849	-9.781397	0.190395	-0.004938	0.004302	0.001168
00133	12364067	0.215594	-9.791754	0.183415	-0.005990	-0.000145	-0.000106
00134	12364117	0.228649	-9.798211	0.182125	-0.007399	-0.001761	-0.006099
00135	12364167	0.229115	-9.787095	0.184587	-0.003682	-0.000300	-0.001331
00136	12364217	0.217802	-9.789651	0.171892	-0.005388	0.000026	-0.001000
00137	12364267	0.204537	-9.784466	0.194280	-0.003470	0.002963	-0.002653
00138	12364317	0.221442	-9.783067	0.178310	-0.006416	0.002272	-0.001176
00139	12364367	0.227240	-9.766073	0.189429	-0.003563	0.003830	-0.003102
00140	12364417	0.223707	-9.776994	0.186824	-0.002819	0.002853	-0.000545
00141	12364467	0.216075	-9.767316	0.184129	-0.005706	0.003923	-0.002835
00142	12364517	0.214684	-9.786648	0.206008	-0.003637	-0.003009	-0.001788
00143	12364567	0.219059	-9.769993	0.190896	-0.003262	-0.000415	0.000561
00144	12364617	0.237631	-9.810391	0.194554	-0.006840	0.001392	-0.001154
00145	12364667	0.221308	-9.767542	0.186991	-0.005826	0.002465	-0.004671
00146	12364717	0.227037	-9.787079	0.181807	-0.001141	-0.001034	-0.003167
00147	12364767	0.242616	-9.798512	0.182525	-0.007246	-0.000302	-0.004367
00148	12364817	0.203795	-9.779618	0.171767	-0.005780	0.001476	0.000741
00149	12364867	0.211142	-9.771383	0.197382	-0.003315	0.000228	-0.000460
00150	12364917	0.209473	-9.762153	0.182277	-0.005441	0.001738	0.000194
00151	12364967	0.217943	-9.777431	0.195478	-0.002133	-0.000818	-0.000471
00152	12365017	0.216959	-9.777153	0.192036	-0.005454	0.003257	-0.000343
00153	12365067	0.204917	-9.773614	0.183315	-0.003516	0.001319	-0.002570
00154	12365117	0.205700	-9.766512	0.185199	-0.003957	0.002412	-0.000028
00155	12365167	0.198574	-9.780254	0.177821	-0.003454	-0.001455	-0.000724
00156	12365217	0.200537	-9.789218	0.176298	-0.006790	-0.001255	-0.000007
00157	12365267	0.219020	-9.780497	0.179396	-0.002643	0.002240	0.000861
00158	12365317	0.230097	-9.791257	0.193979	-0.002450	0.003012	-0.002311
00159	12365367	0.224425	-9.795879	0.181483	-0.003603	0.001287	-0.000967
00160	12365417	0.210996	-9.782531	0.181850	-0.002403	0.002561	-0.003237
00161	12365467	0.207005	-9.788864	0.189272	-0.003078	0.000519	-0.004401
00162	12365517	0.215945	-9.789088	0.195959	-0.001823	-0.000550	-0.000756
00163	12365567	0.218608	-9.789706	0.191806	-0.005234	-0.001036	-0.002160
00164	12365617	0.214369	-9.789600	0.196936	-0.002413	-0.000312	-0.004251
00165	12365667	0.204122	-9.783767	0.179428	-0.005177	0.001321	-0.002977
00166	12365717	0.204910	-9.770408	0.174874	-0.005146	0.002451	-0.002174
00167	12365767	0.211772	-9.791458	0.176700	-0.005430	-0.001714	0.000463
00168	12365817	0.219426	-9.791945	0.183676	-0.004168	-0.001407	-0.002423
00169	12365867	0.227192	-9.799633	0.180775	-0.005210	0.003447	-0.002649
00170	12365917	0.217649	-9.782028	0.185422	-0.001932	-0.001498	-0.003453
00171	12365967	0.201652	-9.769375	0.167180	-0.004863	0.002616	-0.002238
00172	12366017	0.237464	-9.787557	0.175433	-0.005373	0.000414	-0.001065
00173	12366067	0.216816	-9.800170	0.192368	-0.003339	0.002066	-0.001251
00174	12366117	0.206933	-9.793715	0.196166	-0.005493	0.000187	-0.001930
00175	12366167	0.209667	-9.798905	0.196976	-0.002819	0.002652	-0.002150
00176	12366217	0.232913	-9.800899	0.174930	-0.005210	0.005580	-0.000972
00177	12366267	0.234124	-9.804611	0.186204	-0.007585	0.000371	-0.004040
00178	12366317	0.209636	-9.775398	0.179686	-0.003505	-0.000001	-0.000812
00179	12366367	0.208511	-9.786704	0.173470	-0.003030	0.001199	-0.001451
00180	12366417	0.229689	-9.787593	0.202039	-0.005379	0.003000	0.000328
00181	12366467	0.239110	-9.790480	0.181949	-0.001898	0.004223	0.001509
00182	12366517	0.244718	-9.803048	0.200716	-0.008601	0.003487	-0.002706
00183	12366567	0.230468	-9.778564	0.186246	-0.005867	0.001822	-0.002816
00184	12366617	0.220280	-9.783448	0.187027	-0.004022	0.002147	-0.002822
00185	12366667	0.216780	-9.786230	0.180453	0.000563	0.001810	-0.002357
00186	12366717	0.212030	-9.794929	0.186867	-0.003500	0.003064	-0.001983
00187	12366767	0.228738	-9.813525	0.175047	-0.003356	0.002322	-0.001667
00188	12366817	0.212379	-9.786670	0.174682	-0.002555	-0.001593	0.000588
00189	12366867	0.224262	-9.791541	0.176603	-0.008158	0.000396	-0.002592
00190	12366917	0.231725	-9.789129	0.180179	-0.006941	-0.002677	-0.001237
00191	12366967	0.221109	-9.778166	0.183914	-0.002743	0.000270	-0.000142
00192	12367017	0.222529	-9.782606	0.165158	-0.006477	0.000812	-0.001636
00193	12367067	0.214327	-9.782976	0.182448	-0.006318	0.001108	-0.001895
00194	12367117	0.202846	-9.791747	0.188590	-0.004607	0.001761	0.002018
00195	12367167	0.229359	-9.803222	0.184291	-0.006104	0.001110	-0.003333
00196	12367217	0.225798	-9.796969	0.176711	-0.006398	0.003891	0.002005
00197	12367267	0.201697	-9.791668	0.182528	-0.004064	0.006059	0.001689
00198	12367317	0.203592	-9.780126	0.188812	-0.004262	0.002621	-0.004197
00199	12367367	0.228275	-9.799038	0.189291	-0.006305	-0.000408	-0.000326
00200	12367417	0.216331	-9.799844	0.186156	-0.001489	0.004360	0.000933
00201	12367467	0.206484	-9.766471	0.166967	-0.004550	-0.001080	0.000978
00202	12367517	0.226919	-9.788212	0.193338	-0.007737	0.003538	0.000114
00203	12367567	0.216972	-9.788772	0.191787	-0.005455	-0.000041	-0.002156
00204	12367617	0.223686	-9.781861	0.195228	-0.003828	0.001382	0.000702
00205	12367667	0.204588	-9.787380	0.183306	-0.002960	0.002333	-0.000513
00206	12367717	0.223904	-9.787207	0.187963	-0.005306	-0.001911	-0.004090
00207	12367767	0.207037	-9.775183	0.179155	-0.005790	0.003732	0.000143
00208	12367817	0.216755	-9.775003	0.190698	-0.002083	0.001603	-0.001451
00209	12367867	0.227926	-9.793132	0.190878	-0.003199	0.000582	-0.000622
00210	12367917	0.214724	-9.793908	0.199551	-0.002731	0.001213	0.000986
00211	12367967	0.210212	-9.796106	0.184915	-0.005896	0.000887	-0.001957
00212	12368017	0.225443	-9.789777	0.170986	-0.002553	0.005531	-0.001655
00213	12368067	0.219476	-9.803509	0.195261	-0.002915	-0.001577	-0.002106
00214	12368117	0.231102	-9.798725	0.186442	-0.005414	0.000837	-0.000454
00215	12368167	0.223775	-9.794168	0.177384	-0.003934	-0.000533	-0.001968
00216	12368217	0.228129	-9.786540	0.178854	-0.004916	0.003462	-0.000151
00217	12368267	0.230010	-9.782120	0.186005	-0.004280	0.000241	-0.002608
00218	12368317	0.225979	-9.774102	0.185736	-0.004719	-0.000697	0.002002
00219	12368367	0.233175	-9.777493	0.196329	-0.004534	0.002467	0.000067
00220	12368417	0.241903	-9.791775	0.206591	-0.004043	0.005054	-0.002292
00221	12368467	0.220419	-9.799968	0.197393	-0.003662	-0.001104	-0.001112
00222	12368517	0.233368	-9.805116	0.187972	-0.003556	0.000544	-0.000944
00223	12368567	0.243744	-9.796293	0.178288	-0.003712	0.000639	-0.001165
00224	12368617	0.218798	-9.791929	0.198025	-0.004376	0.002533	0.000385
00225	12368667	0.218324	-9.797401	0.167479	-0.001685	0.002486	0.000473
00226	12368717	0.209952	-9.777659	0.188062	-0.003383	0.000190	-0.002994
00227	12368767	0.215694	-9.784480	0.173608	-0.006192	-0.001853	0.000660
00228	12368817	0.223099	-9.783064	0.180076	-0.003168	0.001584	-0.001130
00229	12368867	0.220874	-9.804002	0.197977	-0.005864	0.001988	-0.001088
00230	12368917	0.214056	-9.778697	0.181761	-0.006996	0.002123	-0.004319
00231	12368967	0.205076	-9.781982	0.187604	-0.002713	-0.001998	-0.003745
00232	12369017	0.220086	-9.776981	0.198539	-0.004743	-0.000352	-0.002801
00233	12369067	0.213155	-9.772607	0.186083	-0.006232	-0.003792	-0.000508
00234	12369117	0.210284	-9.784430	0.181518	-0.007115	0.000900	-0.002592
00235	12369167	0.224065	-9.796546	0.193943	-0.005337	0.001585	0.001795
00236	12369217	0.220049	-9.793722	0.191859	-0.005009	0.001200	-0.000101
00237	12369267	0.198762	-9.780279	0.179711	-0.004833	-0.001349	0.000498
00238	12369317	0.209761	-9.793509	0.169350	-0.004001	0.002568	-0.001406
00239	12369367	0.222530	-9.787451	0.171922	-0.002957	0.001974	-0.001281
00240	12369417	0.220770	-9.792412	0.169342	-0.003164	0.002050	0.005030
00241	12369467	0.210719	-9.768908	0.190378	-0.005895	0.001051	-0.000610
00242	12369517	0.213889	-9.776429	0.203879	-0.003685	-0.000428	-0.003061
00243	12369567	0.225753	-9.790164	0.196523	-0.005507	0.003736	-0.003129
00244	12369617	0.198074	-9.780971	0.177779	-0.004331	-0.000081	-0.001194
00245	12369667	0.216715	-9.781619	0.204597	-0.003268	0.006039	-0.000462
00246	12369717	0.228289	-9.798455	0.182167	-0.004435	0.002436	0.000098
00247	12369767	0.223443	-9.778314	0.195404	-0.005145	-0.000550	-0.000910
00248	12369817	0.229039	-9.777814	0.213848	-0.003152	0.002033	-0.002278
00249	12369867	0.240892	-9.814132	0.198738	-0.004078	0.002196	0.000606
00250	12369917	0.208409	-9.776731	0.166752	-0.005432	0.002534	0.000104
00251	12369967	0.230321	-9.772285	0.173697	-0.000704	-0.000713	-0.003295
00252	12370017	0.204431	-9.769945	0.185535	-0.002354	0.000233	-0.000368
00253	12370067	0.221631	-9.785735	0.176833	-0.003138	-0.000498	-0.002192
00254	12370117	0.215429	-9.787110	0.184139	-0.008705	0.001629	-0.002845
00255	12370167	0.220846	-9.788671	0.197613	-0.006785	-0.000467	-0.002957
00256	12370217	0.237233	-9.794352	0.194677	-0.005705	0.001914	-0.000512
00257	12370267	0.215835	-9.779205	0.210699	-0.001355	0.000831	-0.000814
00258	12370317	0.241197	-9.781880	0.189238	-0.001989	-0.001244	0.000712
00259	12370367	0.211602	-9.791063	0.191444	-0.004409	0.002223	-0.003300
00260	12370417	0.222169	-9.786844	0.172248	-0.004222	0.002387	-0.003012
00261	12370467	0.216112	-9.779325	0.172328	-0.003879	0.001783	-0.002217
00262	12370517	0.218267	-9.782186	0.205638	-0.002903	0.002415	-0.000579
00263	12370567	0.220421	-9.796576	0.187068	-0.005277	0.002766	0.000262
00264	12370617	0.206200	-9.784206	0.188553	-0.006203	-0.001516	0.000496
00265	12370667	0.209326	-9.786736	0.201686	-0.001097	-0.001235	-0.001369
00266	12370717	0.223697	-9.786110	0.187577	-0.003781	0.001655	-0.001641
00267	12370767	0.226310	-9.770899	0.187866	-0.003093	0.000218	-0.001262
00268	12370817	0.216585	-9.783581	0.187130	-0.004762	0.003279	-0.003807
00269	12370867	0.213724	-9.791090	0.195097	-0.002075	0.002231	-0.002891
00270	12370917	0.228493	-9.788741	0.192794	-0.005551	0.005075	-0.003538
00271	12370967	0.200806	-9.788980	0.186337	-0.001779	-0.000783	0.000846
00272	12371017	0.219776	-9.794271	0.175614	-0.005808	0.001039	-0.002086
00273	12371067	0.213137	-9.789812	0.173522	-0.004081	0.001035	-0.002343
00274	12371117	0.205046	-9.779176	0.169223	-0.003795	-0.003923	0.000193
00275	12371167	0.225105	-9.785561	0.199195	0.000013	0.004045	-0.003303
00276	12371217	0.233621	-9.792147	0.187316	-0.003162	0.002113	-0.003337
00277	12371267	0.234156	-9.804741	0.188429	-0.006068	0.002100	-0.001310
00278	12371317	0.215060	-9.787052	0.195755	-0.005145	-0.000656	-0.000779
00279	12371367	0.223927	-9.793525	0.191717	-0.002100	0.001400	0.001273
00280	12371417	0.228572	-9.784702	0.177080	-0.002505	0.001707	-0.002766
00281	12371467	0.227436	-9.795962	0.183257	-0.005675	0.000715	-0.003081
00282	12371517	0.213414	-9.794264	0.169094	-0.006593	0.001706	-0.000638
00283	12371567	0.209162	-9.779370	0.201069	-0.003801	0.000401	0.000215
00284	12371617	0.223412	-9.801599	0.176297	-0.006055	0.003174	0.001293
00285	12371667	0.223821	-9.773175	0.179690	-0.003759	0.001077	-0.001544
00286	12371717	0.212586	-9.787566	0.180994	-0.002211	0.001356	-0.004303
00287	12371767	0.220060	-9.792995	0.169796	0.001434	0.000717	-0.001206
00288	12371817	0.215003	-9.779007	0.181167	-0.003298	0.002894	0.000901
00289	12371867	0.231139	-9.782077	0.178027	-0.002092	0.002716	-0.004201
00290	12371917	0.211693	-9.784302	0.184081	-0.004312	0.002818	0.004011
00291	12371967	0.225795	-9.784642	0.186479	-0.001998	0.003111	-0.001603
00292	12372017	0.210997	-9.798036	0.181462	-0.003833	0.002333	-0.001956
00293	12372067	0.231714	-9.799227	0.183397	0.001029	0.001553	0.000684
00294	12372117	0.230712	-9.800695	0.185197	-0.001705	-0.002211	-0.000224
00295	12372167	0.220679	-9.805056	0.167529	-0.003512	0.001343	0.000188
00296	12372217	0.203605	-9.785525	0.195628	-0.004038	-0.000283	-0.000878
00297	12372267	0.233310	-9.801556	0.166490	-0.003474	0.000112	-0.000755
00298	12372317	0.225381	-9.789240	0.192161	-0.002877	0.000379	-0.002260
00299	12372367	0.209966	-9.780927	0.194387	-0.003430	0.000824	-0.000712
00300	12372417	0.207365	-9.785483	0.180077	-0.002764	0.005001	-0.003063
00301	12372467	0.215356	-9.774159	0.175063	-0.008310	-0.003073	-0.002966
00302	12372517	0.212826	-9.769999	0.179652	-0.007554	0.002717	-0.002937
00303	12372567	0.211632	-9.792738	0.192693	-0.006289	0.000962	-0.003397
00304	12372617	0.215863	-9.770967	0.184077	-0.002470	0.004041	0.000551
00305	12372667	0.225991	-9.774495	0.174321	-0.005121	0.001669	-0.000609
00306	12372717	0.215325	-9.789898	0.164646	-0.004639	0.002481	-0.001632
00307	12372767	0.227924	-9.797874	0.184775	-0.000545	-0.001680	-0.002144
00308	12372817	0.216893	-9.787871	0.173231	-0.004444	0.002456	-0.001343
00309	12372867	0.206292	-9.779937	0.172982	-0.005903	0.000235	0.001087
00310	12372917	0.221723	-9.796236	0.197006	-0.003452	0.001170	-0.004176
00311	12372967	0.221981	-9.782949	0.181150	-0.002013	0.005727	-0.000881
00312	12373017	0.219971	-9.793517	0.187806	-0.004652	0.000929	-0.001961
00313	12373067	0.211663	-9.770167	0.205872	-0.005585	0.003435	0.000075
00314	12373117	0.228692	-9.779881	0.171966	-0.005072	0.000052	-0.001291
00315	12373167	0.230404	-9.797772	0.180087	-0.006412	0.003426	0.001870
00316	12373217	0.218504	-9.783962	0.167513	-0.003913	-0.000115	0.000755
00317	12373267	0.209831	-9.781715	0.183968	-0.006477	0.000933	-0.001246
00318	12373317	0.213630	-9.799273	0.171593	-0.005347	-0.001340	0.000689
00319	12373367	0.209489	-9.776169	0.177788	-0.005882	-0.000441	0.000886
00320	12373417	0.214063	-9.799673	0.182596	-0.004520	0.002266	0.003241
00321	12373467	0.225393	-9.779118	0.166293	-0.003634	0.003273	-0.001086
00322	12373517	0.224439	-9.776088	0.199799	-0.005610	0.002079	-0.001020
00323	12373567	0.224222	-9.799671	0.206074	-0.001830	0.000656	-0.000977
00324	12373617	0.221527	-9.780814	0.180625	-0.003488	0.001629	-0.001641
00325	12373667	0.234953	-9.776936	0.186531	-0.007165	0.000698	0.000098
00326	12373717	0.216069	-9.772708	0.189257	-0.005891	-0.001222	0.000658
00327	12373767	0.224773	-9.788260	0.189517	-0.004262	0.000218	-0.006676
00328	12373817	0.218953	-9.782507	0.180709	-0.002027	-0.000317	-0.002585
00329	12373867	0.227062	-9.793669	0.188271	-0.003804	0.000495	-0.000492
00330	12373917	0.223620	-9.795946	0.178706	-0.006481	-0.002071	-0.001620
00331	12373967	0.219197	-9.779999	0.188035	-0.005399	-0.000464	0.002329
00332	12374017	0.217785	-9.790502	0.190705	-0.004099	-0.003840	-0.003493
00333	12374067	0.218952	-9.790425	0.186588	-0.007737	-0.000509	-0.000293
00334	12374117	0.223055	-9.774626	0.180725	0.000523	0.002220	-0.000688
00335	12374167	0.220010	-9.784383	0.179905	-0.005785	0.003098	-0.004571
00336	12374217	0.213444	-9.797940	0.177396	-0.002216	-0.000484	-0.003574
00337	12374267	0.225128	-9.780028	0.178631	-0.006475	0.000899	-0.001281
00338	12374317	0.227331	-9.780713	0.178663	-0.004539	0.002152	-0.004967
00339	12374367	0.224069	-9.798038	0.192120	-0.005343	-0.000665	-0.002735
00340	12374417	0.221548	-9.784703	0.186860	-0.005738	0.000846	-0.002407
00341	12374467	0.207969	-9.781666	0.179024	-0.005066	0.003859	-0.003062
00342	12374517	0.225619	-9.791920	0.197150	-0.005495	0.000240	-0.001193
00343	12374567	0.234625	-9.790677	0.200240	-0.003377	0.002015	-0.003625
00344	12374617	0.228990	-9.794199	0.178287	-0.001031	0.000842	0.001904
00345	12374667	0.211954	-9.763818	0.194082	-0.004694	0.002316	-0.001089
00346	12374717	0.208817	-9.768620	0.179998	-0.005446	0.003752	-0.002615
00347	12374767	0.230712	-9.782291	0.191611	-0.005732	0.002948	-0.000280
00348	12374817	0.232242	-9.797419	0.173871	-0.004736	0.002610	-0.001312
00349	12374867	0.222582	-9.764637	0.178428	-0.005553	0.000945	-0.001923
00350	12374917	0.221438	-9.791018	0.180863	-0.004238	-0.000323	-0.002161
00351	12374967	0.217219	-9.790453	0.186900	-0.003574	0.002006	-0.005322
00352	12375017	0.227541	-9.793219	0.190009	-0.002423	0.001325	-0.000461
00353	12375067	0.226503	-9.788862	0.199311	-0.005673	-0.000153	-0.001035
00354	12375117	0.210039	-9.795381	0.177566	-0.005953	0.000584	-0.001414
00355	12375167	0.212807	-9.792330	0.182048	-0.006124	0.004166	-0.000176
00356	12375217	0.210389	-9.787094	0.179304	-0.003921	0.002173	-0.002275
00357	12375267	0.220046	-9.782516	0.182346	-0.001179	-0.000554	0.000490
00358	12375317	0.208164	-9.770735	0.193146	-0.004180	0.000294	-0.000300
00359	12375367	0.228357	-9.778186	0.170310	-0.004559	0.000230	0.002202
00360	12375417	0.230318	-9.779950	0.193265	-0.005308	0.000072	-0.004684
00361	12375467	0.230487	-9.796008	0.157601	-0.002481	0.000770	-0.004564
00362	12375517	0.216084	-9.778733	0.179844	-0.007413	0.003302	-0.003187
00363	12375567	0.212352	-9.781048	0.173233	-0.006550	0.004248	-0.003762
00364	12375617	0.220975	-9.788604	0.177838	-0.002668	0.001802	-0.003530
00365	12375667	0.225596	-9.788043	0.176143	-0.001463	-0.001650	0.000968
00366	12375717	0.227321	-9.799849	0.204583	-0.004679	0.001869	0.000577
00367	12375767	0.208612	-9.783007	0.189513	-0.005942	0.002363	-0.001851
00368	12375817	0.225277	-9.792032	0.172728	-0.004414	0.000616	0.000060
00369	12375867	0.213551	-9.784915	0.179077	-0.003240	0.002725	-0.003590
00370	12375917	0.226148	-9.764907	0.199182	0.000305	0.003447	0.003488
00371	12375967	0.211718	-9.776140	0.177395	-0.002538	0.001904	-0.001352
00372	12376017	0.212962	-9.775934	0.180732	-0.004006	0.001551	-0.003816
00373	12376067	0.220632	-9.786229	0.177573	-0.003123	0.003348	-0.000382
00374	12376117	0.221704	-9.803783	0.193310	-0.004726	0.001418	0.000641
00375	12376167	0.210087	-9.778016	0.190072	-0.000645	-0.000618	-0.003833
00376	12376217	0.217063	-9.792493	0.180880	-0.004792	0.000545	0.001406
00377	12376267	0.215917	-9.790354	0.179459	-0.004639	0.001509	-0.001504
00378	12376317	0.227037	-9.785816	0.186566	-0.005777	0.000939	-0.003018
00379	12376367	0.202383	-9.774213	0.183690	-0.001060	-0.000391	-0.001913
00380	12376417	0.201827	-9.775509	0.205388	-0.004324	0.002708	-0.003235
00381	12376467	0.213539	-9.779850	0.204448	-0.002870	0.002155	-0.002660
00382	12376517	0.204359	-9.768135	0.191521	-0.004198	0.004010	0.000012
00383	12376567	0.203765	-9.771140	0.185308	-0.003274	0.004023	-0.002168
00384	12376617	0.205803	-9.769855	0.195783	-0.005829	0.002847	-0.001687
00385	12376667	0.200404	-9.784794	0.175808	-0.001357	0.003021	-0.001607
00386	12376717	0.204732	-9.798552	0.194624	-0.004170	0.004005	-0.000373
00387	12376767	0.224422	-9.793565	0.194507	-0.004201	-0.002351	-0.001148
00388	12376817	0.220053	-9.782180	0.191200	-0.004351	0.000547	-0.001415
00389	12376867	0.213173	-9.784269	0.182507	-0.007565	0.000110	0.000191
00390	12376917	0.213083	-9.779587	0.186928	-0.003827	0.000042	-0.001454
00391	12376967	0.217548	-9.791151	0.186892	-0.004168	0.000810	-0.000391
00392	12377017	0.226566	-9.774141	0.167686	-0.005096	0.002859	-0.001851
00393	12377067	0.224106	-9.792518	0.188102	-0.002600	-0.001424	-0.003099
00394	12377117	0.214543	-9.787724	0.193351	-0.004873	0.000996	-0.000069
00395	12377167	0.221304	-9.799770	0.179448	-0.005619	0.000040	-0.002091
00396	12377217	0.221208	-9.801990	0.184521	-0.002401	0.000717	0.000759
00397	12377267	0.226507	-9.802478	0.189979	-0.004000	-0.002578	-0.001182
00398	12377317	0.210903	-9.792527	0.193915	-0.004915	0.005254	-0.001136
00399	12377367	0.218140	-9.791051	0.180672	-0.003585	0.000336	-0.003440
00400	12377417	0.209640	-9.782037	0.189091	-0.004420	0.002579	-0.003776
00401	12377467	0.232789	-9.788230	0.193803	-0.003415	-0.002316	-0.005984
00402	12377517	0.221875	-9.776797	0.182359	-0.004054	0.002591	0.000966
00403	12377567	0.231043	-9.802676	0.206772	-0.002661	0.000374	-0.005594
00404	12377617	0.209448	-9.778753	0.175910	-0.004894	0.002440	-0.003325
00405	12377667	0.204962	-9.778721	0.170208	-0.004016	-0.001257	-0.004509
00406	12377717	0.226083	-9.777927	0.166180	-0.005429	0.000209	-0.001224
00407	12377767	0.212539	-9.789028	0.183209	-0.007979	0.001001	-0.001183
00408	12377817	0.221818	-9.776139	0.185425	-0.002373	-0.001185	0.001161
00409	12377867	0.221127	-9.788272	0.187167	-0.001413	0.002766	-0.001382
00410	12377917	0.247545	-9.784314	0.182687	-0.003412	0.001050	-0.002161
00411	12377967	0.215678	-9.789620	0.193445	-0.001203	0.003117	-0.003368
00412	12378017	0.221837	-9.793878	0.197904	-0.005105	0.000889	-0.002180
00413	12378067	0.228028	-9.788122	0.167678	-0.002732	0.004261	0.002156
00414	12378117	0.225672	-9.791990	0.186190	-0.002886	0.000770	-0.000525
00415	12378167	0.221392	-9.787795	0.187588	-0.005218	-0.004668	-0.003175
00416	12378217	0.226185	-9.798549	0.181082	-0.005404	0.001533	-0.000639
00417	12378267	0.210408	-9.777928	0.185068	-0.002988	-0.000940	0.001106
00418	12378317	0.198287	-9.778743	0.197291	-0.004530	0.002256	-0.002723
00419	12378367	0.227979	-9.793830	0.199279	-0.002869	-0.000748	0.000045
00420	12378417	0.215935	-9.791430	0.187879	-0.003838	-0.000805	-0.003732
00421	12378467	0.217733	-9.783509	0.183496	-0.005173	0.002311	-0.000283
00422	12378517	0.206268	-9.784042	0.178340	-0.003691	0.001987	0.000350
00423	12378567	0.226314	-9.792703	0.171282	-0.004213	0.003262	-0.002750
00424	12378617	0.223553	-9.800629	0.191061	0.000322	0.000541	0.001360
00425	12378667	0.233925	-9.783221	0.178013	-0.001467	0.004569	-0.000444
00426	12378717	0.199511	-9.772402	0.187019	-0.003754	-0.000248	-0.001613
00427	12378767	0.221182	-9.795899	0.174630	-0.004333	0.000037	0.000531
00428	12378817	0.224148	-9.795820	0.171580	-0.001612	-0.001375	-0.002626
00429	12378867	0.223592	-9.793127	0.181163	-0.004420	-0.000390	-0.002259
00430	12378917	0.227973	-9.785821	0.187785	-0.004981	0.004347	-0.000788
00431	12378967	0.216918	-9.783834	0.203914	-0.001830	0.001755	-0.002505
00432	12379017	0.202789	-9.778996	0.201837	-0.003780	0.001822	-0.000480
00433	12379067	0.224809	-9.793674	0.171255	-0.003985	0.003268	-0.000667
00434	12379117	0.221899	-9.795633	0.188232	0.001755	-0.000509	-0.002690
00435	12379167	0.225100	-9.780793	0.182777	-0.004473	-0.001040	-0.004311
00436	12379217	0.224686	-9.770652	0.186130	-0.004624	0.000194	0.000372
00437	12379267	0.216467	-9.786172	0.186178	-0.004908	0.001256	0.001345
00438	12379317	0.217961	-9.779543	0.203457	-0.003044	-0.000002	0.001237
00439	12379367	0.219692	-9.772578	0.199270	-0.007088	0.001947	-0.002810
00440	12379417	0.225457	-9.806124	0.163827	-0.006406	0.001971	0.000902
00441	12379467	0.224966	-9.792427	0.182603	-0.003541	0.000111	-0.001330
00442	12379517	0.217769	-9.784376	0.177437	-0.008069	-0.000257	-0.001830
00443	12379567	0.216012	-9.773218	0.175887	-0.006174	0.001612	-0.001408
00444	12379617	0.212997	-9.774463	0.193194	-0.002366	-0.001480	0.000681
00445	12379667	0.222148	-9.779795	0.192381	-0.003602	-0.001855	0.000039
00446	12379717	0.212597	-9.789057	0.169629	-0.005450	0.002014	-0.001568
00447	12379767	0.232232	-9.777602	0.181308	-0.003909	0.001619	-0.002504
00448	12379817	0.222485	-9.782087	0.187327	-0.005902	0.003134	-0.001527
00449	12379867	0.238724	-9.811234	0.178349	-0.005494	0.003128	-0.004965
00450	12379917	0.221530	-9.780984	0.197670	-0.000310	0.002508	0.000690
00451	12379967	0.221212	-9.778546	0.177971	-0.003876	0.001666	-0.001327
00452	12380017	0.219963	-9.781429	0.194505	-0.001314	0.000420	-0.001977
00453	12380067	0.220512	-9.784337	0.184014	-0.001530	0.002385	-0.000817
00454	12380117	0.216443	-9.780177	0.187281	-0.004156	-0.001927	-0.004128
00455	12380167	0.207123	-9.786791	0.193629	-0.002148	0.001826	-0.001392
00456	12380217	0.220655	-9.793039	0.179183	-0.000820	0.001104	-0.001689
00457	12380267	0.205704	-9.779783	0.184075	-0.001466	0.002353	-0.001293
00458	12380317	0.217896	-9.789113	0.183256	-0.000656	-0.000825	0.000320
00459	12380367	0.222205	-9.794624	0.191126	-0.003038	-0.000481	-0.001016
00460	12380417	0.208736	-9.767540	0.192836	-0.004152	0.001697	0.000727
00461	12380467	0.207418	-9.784930	0.180850	-0.005379	-0.000393	-0.001395
00462	12380517	0.218202	-9.786712	0.181974	-0.006772	0.001094	-0.003242
00463	12380567	0.198780	-9.771158	0.203918	-0.003352	0.001350	-0.001901
00464	12380617	0.217495	-9.771855	0.187054	-0.003899	0.002307	-0.002025
00465	12380667	0.211508	-9.771363	0.181036	-0.007363	-0.000038	0.001337
00466	12380717	0.221586	-9.771651	0.192503	-0.004894	-0.001055	0.003153
00467	12380767	0.216275	-9.786283	0.167892	-0.003599	0.000898	-0.000460
00468	12380817	0.225098	-9.802395	0.173893	-0.003371	0.001865	-0.001614
00469	12380867	0.214362	-9.771023	0.191989	-0.007232	-0.001496	-0.002775
00470	12380917	0.224999	-9.795856	0.180332	-0.004517	0.003684	-0.003330
00471	12380967	0.203650	-9.779679	0.190922	-0.004235	0.003181	-0.000606
00472	12381017	0.219955	-9.781706	0.181724	-0.004164	0.001861	0.000758
00473	12381067	0.209395	-9.792551	0.184289	-0.001276	0.000552	0.000395
00474	12381117	0.200752	-9.778890	0.168246	-0.004173	0.004049	-0.002591
00475	12381167	0.214453	-9.784720	0.187894	-0.008568	0.001587	-0.000476
00476	12381217	0.222171	-9.780348	0.187637	-0.006858	-0.001363	-0.003896
00477	12381267	0.212292	-9.781674	0.189681	-0.004829	0.001782	0.000665
00478	12381317	0.224784	-9.791502	0.175237	-0.004965	-0.002927	0.003271
00479	12381367	0.225240	-9.776508	0.172353	-0.006018	0.002790	-0.001633
00480	12381417	0.207161	-9.769850	0.187177	-0.000958	0.002593	-0.000651
00481	12381467	0.215589	-9.760032	0.187811	-0.002138	0.001541	0.000276
00482	12381517	0.234022	-9.801366	0.175638	-0.008252	0.000228	-0.005551
00483	12381567	0.223213	-9.787570	0.179785	-0.004537	0.000233	-0.002740
00484	12381617	0.213579	-9.782254	0.181023	-0.005332	-0.000943	-0.001108
00485	12381667	0.224092	-9.785128	0.175841	-0.002053	0.001666	-0.001742
00486	12381717	0.205427	-9.782123	0.181904	-0.002603	-0.002183	-0.000352
00487	12381767	0.225381	-9.788368	0.171920	-0.002367	-0.000599	-0.000378
00488	12381817	0.218791	-9.775054	0.163962	-0.006538	0.003172	-0.000410
00489	12381867	0.190158	-9.776857	0.181678	-0.005032	0.001002	-0.000427
00490	12381917	0.207507	-9.791981	0.191823	-0.006457	0.000130	-0.003088
00491	12381967	0.211468	-9.790617	0.183738	-0.003461	-0.001359	0.000004
00492	12382017	0.213743	-9.772710	0.177851	-0.006016	0.003761	-0.001594
00493	12382067	0.203833	-9.785686	0.196160	-0.006565	0.001613	-0.003879
00494	12382117	0.210665	-9.767320	0.179894	-0.003524	0.004231	0.002246
00495	12382167	0.212642	-9.778276	0.184202	-0.004077	-0.000509	-0.005787
00496	12382217	0.221845	-9.777746	0.187931	-0.005685	0.000179	-0.001676
00497	12382267	0.219777	-9.797064	0.177232	-0.003414	0.001251	-0.003349
00498	12382317	0.235572	-9.798966	0.159807	-0.007761	0.001112	-0.000329
00499	12382367	0.216950	-9.788491	0.188513	-0.001845	0.002152	-0.001936
00500	12382417	0.239395	-9.789021	0.178923	-0.006245	0.000691	-0.000297
00501	12382467	0.216324	-9.776925	0.191839	-0.005563	-0.001721	-0.002234
00502	12382517	0.219413	-9.792333	0.178180	-0.002863	-0.002059	-0.000770
00503	12382567	0.226940	-9.791796	0.164745	-0.004350	-0.000668	-0.002363
00504	12382617	0.234275	-9.795284	0.165796	-0.008057	0.001530	-0.001124
00505	12382667	0.226106	-9.786485	0.188607	-0.004376	-0.000126	-0.006332
00506	12382717	0.215789	-9.785633	0.187108	-0.003841	-0.000469	-0.002332
00507	12382767	0.191501	-9.774848	0.175648	-0.005025	-0.000123	0.001399
00508	12382817	0.203768	-9.785804	0.157196	-0.002868	0.000102	-0.000373
00509	12382867	0.209112	-9.776968	0.189479	-0.005022	0.003878	0.000553
00510	12382917	0.226049	-9.797687	0.192275	-0.002860	0.000168	0.000238
00511	12382967	0.209187	-9.788099	0.172233	-0.003815	-0.001400	-0.000827
00512	12383017	0.206032	-9.785098	0.175117	-0.002929	-0.001901	-0.000316
00513	12383067	0.208726	-9.785547	0.190896	-0.005534	-0.001394	-0.000404
00514	12383117	0.218310	-9.789752	0.194770	-0.002397	0.001729	0.000597
00515	12383167	0.204634	-9.774714	0.193110	-0.004220	0.003628	-0.001666
00516	12383217	0.220724	-9.780149	0.189119	-0.004963	0.000608	-0.003670
00517	12383267	0.219664	-9.773059	0.190148	-0.006180	0.000622	-0.002317
00518	12383317	0.225295	-9.799803	0.174775	-0.003817	-0.000432	-0.002971
00519	12383367	0.223929	-9.787898	0.170945	-0.003164	-0.001837	-0.001569
00520	12383417	0.216500	-9.788143	0.181295	-0.005081	0.001618	-0.000264
00521	12383467	0.213054	-9.781766	0.180163	-0.003379	0.004322	-0.000668
00522	12383517	0.214307	-9.788192	0.182279	-0.002573	0.001111	-0.000462
00523	12383567	0.213644	-9.784808	0.177799	-0.001506	0.001446	-0.002165
00524	12383617	0.214260	-9.779515	0.188937	-0.005861	0.002890	-0.001888
00525	12383667	0.222520	-9.785613	0.191391	-0.001532	-0.000422	0.000392
00526	12383717	0.219356	-9.781309	0.201826	-0.007928	-0.002635	-0.000346
00527	12383767	0.225509	-9.801839	0.183657	-0.002676	0.004172	-0.002818
00528	12383817	0.241010	-9.794645	0.192440	-0.005101	0.000229	0.001906
00529	12383867	0.213530	-9.787228	0.196005	-0.001810	0.001090	-0.001329
00530	12383917	0.216488	-9.778429	0.197121	-0.004052	0.001441	0.000019
00531	12383967	0.218104	-9.789191	0.188420	-0.004829	0.001686	-0.000390
00532	12384017	0.209153	-9.770031	0.184808	-0.008238	0.003005	-0.002681
00533	12384067	0.209834	-9.770166	0.194519	-0.004798	-0.002776	-0.003812
00534	12384117	0.210243	-9.773652	0.190205	-0.004353	0.000922	0.000182
00535	12384167	0.210283	-9.781320	0.179658	-0.001510	-0.002326	-0.001510
00536	12384217	0.221968	-9.790798	0.188291	-0.001640	0.001737	-0.002390
00537	12384267	0.213283	-9.779923	0.183686	-0.005504	0.000537	-0.002030
00538	12384317	0.205426	-9.798016	0.181891	-0.002680	-0.001865	-0.001280
00539	12384367	0.233012	-9.809372	0.170731	-0.002147	-0.000270	0.000165
00540	12384417	0.228019	-9.799179	0.182683	-0.005040	-0.002067	-0.000698
00541	12384467	0.231486	-9.777077	0.167788	-0.004667	0.001490	-0.000812
00542	12384517	0.208388	-9.790535	0.175809	-0.006217	0.001214	0.002559
00543	12384567	0.226251	-9.807144	0.175007	-0.004940	0.002196	0.001020
00544	12384617	0.225677	-9.804039	0.188487	-0.002786	0.000557	-0.000726
00545	12384667	0.222235	-9.785320	0.171682	-0.003598	-0.001971	-0.000186
00546	12384717	0.195867	-9.762905	0.173782	-0.003122	0.001028	-0.003827
00547	12384767	0.219805	-9.788124	0.182748	-0.003465	0.002998	-0.001219
00548	12384817	0.217795	-9.787258	0.170721	-0.004971	0.001872	-0.002119
00549	12384867	0.233048	-9.804136	0.169928	-0.005614	-0.001111	-0.001914
00550	12384917	0.228848	-9.789242	0.169493	-0.002319	-0.002719	0.003773
00551	12384967	0.233923	-9.791863	0.189976	-0.008261	0.002847	-0.000986
00552	12385017	0.234833	-9.785371	0.185326	-0.003462	0.000539	-0.003672
00553	12385067	0.211785	-9.768528	0.182048	-0.003722	-0.001334	-0.001498
00554	12385117	0.211852	-9.772023	0.177749	-0.002516	-0.000023	-0.003196
00555	12385167	0.229430	-9.807571	0.174044	-0.004296	0.001884	-0.001739
00556	12385217	0.225041	-9.796241	0.174260	-0.004142	0.001688	-0.003918
00557	12385267	0.228457	-9.804842	0.196885	-0.003138	0.000814	0.001104
00558	12385317	0.208939	-9.789585	0.175746	-0.006431	0.003687	-0.000470
00559	12385367	0.222769	-9.797881	0.186770	-0.005669	-0.000205	-0.000916
00560	12385417	0.234940	-9.791602	0.173788	-0.004000	-0.000440	-0.001819
00561	12385467	0.206571	-9.785807	0.191008	-0.000920	-0.000633	0.000995
00562	12385517	0.222161	-9.800551	0.175045	-0.004245	0.001373	0.000469
00563	12385567	0.214936	-9.786841	0.171877	-0.006664	0.001644	-0.003337
00564	12385617	0.202300	-9.761686	0.192067	-0.005660	0.004664	-0.001910
00565	12385667	0.227379	-9.790909	0.199708	-0.004722	-0.000931	-0.001430
00566	12385717	0.219284	-9.799332	0.186087	-0.003958	0.001080	-0.002705
00567	12385767	0.215972	-9.800285	0.183224	-0.003461	0.003672	-0.003109
00568	12385817	0.230682	-9.793930	0.182631	-0.006066	0.004040	-0.004382
00569	12385867	0.211750	-9.790009	0.190342	-0.006864	0.002258	-0.001792
00570	12385917	0.219898	-9.794452	0.193070	-0.002491	0.001135	-0.004116
00571	12385967	0.220823	-9.794500	0.197047	-0.006510	0.001102	-0.001448
00572	12386017	0.209850	-9.790427	0.185642	-0.006150	0.002982	-0.000319
00573	12386067	0.229646	-9.808399	0.181963	-0.002439	-0.000473	-0.002496
00574	12386117	0.208851	-9.786088	0.179459	-0.003014	0.000814	-0.000817
00575	12386167	0.220383	-9.794940	0.178615	-0.006256	0.003337	0.000133
00576	12386217	0.206193	-9.791987	0.175609	-0.004150	0.001013	-0.003567
00577	12386267	0.210788	-9.778022	0.166033	-0.001213	0.001289	-0.002517
00578	12386317	0.218826	-9.785033	0.196604	-0.005376	0.001378	-0.004013
00579	12386367	0.225136	-9.787166	0.170498	-0.003045	0.000681	-0.000565
00580	12386417	0.242073	-9.801856	0.183154	-0.003277	0.000198	0.001037
00581	12386467	0.236924	-9.801510	0.187292	0.001066	0.005239	-0.001993
00582	12386517	0.225967	-9.797333	0.184568	-0.005052	-0.000880	-0.004765
00583	12386567	0.213202	-9.787917	0.194537	-0.001925	-0.000663	-0.004739
00584	12386617	0.216106	-9.781867	0.173724	-0.008570	0.002851	0.002316
00585	12386667	0.228638	-9.767475	0.188577	-0.006079	-0.001537	-0.002425
00586	12386717	0.203830	-9.782081	0.193114	-0.004414	0.002360	-0.005613
00587	12386767	0.207940	-9.786079	0.178969	-0.003651	0.002766	-0.001000
00588	12386817	0.238792	-9.808515	0.196809	-0.002510	0.000075	-0.000506
00589	12386867	0.219332	-9.777418	0.195448	-0.002737	0.000174	0.000366
00590	12386917	0.225765	-9.798372	0.175272	-0.004146	0.002113	-0.001258
00591	12386967	0.205975	-9.792334	0.166986	-0.003193	0.003354	-0.002981
00592	12387017	0.214223	-9.803070	0.193543	-0.003580	0.001414	-0.001389
00593	12387067	0.216796	-9.783051	0.189927	-0.005042	0.001492	0.002873
00594	12387117	0.198272	-9.773742	0.171101	-0.003561	-0.000036	0.000528
00595	12387167	0.229661	-9.775100	0.176923	-0.005186	0.004105	0.001381
00596	12387217	0.226954	-9.770691	0.196423	-0.002596	0.000589	-0.002648
00597	12387267	0.212310	-9.780432	0.169562	-0.003075	0.001415	-0.005366
00598	12387317	0.218621	-9.785007	0.179712	-0.000671	0.002528	-0.001647
00599	12387367	0.209014	-9.798196	0.181054	-0.005222	-0.000327	-0.001328
00600	12387417	0.224267	-9.792343	0.167420	-0.001314	0.001646	-0.001588
00601	12387467	0.208419	-9.788365	0.173911	-0.005639	0.002027	0.000798
00602	12387517	0.228633	-9.787006	0.194159	-0.005259	0.001865	-0.001833
00603	12387567	0.220038	-9.785495	0.181326	-0.003601	-0.002105	-0.001730
00604	12387617	0.215104	-9.789224	0.188331	-0.003088	0.002031	-0.004015
00605	12387667	0.216331	-9.785119	0.200464	-0.005414	-0.000396	-0.001843
00606	12387717	0.194827	-9.774869	0.195548	-0.004915	0.003458	0.000449
00607	12387767	0.217286	-9.776719	0.194730	-0.003158	-0.000972	-0.003456
00608	12387817	0.220903	-9.774642	0.170726	-0.005355	-0.000102	-0.000720
00609	12387867	0.212801	-9.790213	0.173696	-0.002275	0.000398	-0.003705
00610	12387917	0.237153	-9.785950	0.193474	-0.002214	-0.001374	-0.001794
00611	12387967	0.227787	-9.786025	0.191359	-0.004385	0.002950	0.000027
00612	12388017	0.227348	-9.807034	0.168845	-0.002343	0.003694	-0.002376
00613	12388067	0.210177	-9.805391	0.202137	-0.007568	-0.000951	-0.002098
00614	12388117	0.226190	-9.785688	0.183835	-0.005056	0.002746	-0.000322
00615	12388167	0.213077	-9.758337	0.168408	-0.004251	0.000662	0.000052
00616	12388217	0.247152	-9.805705	0.191201	-0.003643	0.001315	-0.001649
00617	12388267	0.229211	-9.788465	0.197565	-0.003669	0.002549	0.001691
00618	12388317	0.223253	-9.780933	0.180754	-0.005508	0.000899	0.000856
00619	12388367	0.221655	-9.785047	0.184621	-0.006073	-0.002532	0.001320
00620	12388417	0.193955	-9.773870	0.175459	-0.000925	-0.001601	-0.001382
00621	12388467	0.210167	-9.763638	0.186544	-0.005329	-0.000875	0.000624
00622	12388517	0.229108	-9.782292	0.180995	-0.007390	0.000436	-0.003790
00623	12388567	0.208547	-9.781836	0.196209	-0.005493	0.000276	-0.002705
00624	12388617	0.229488	-9.791965	0.177877	-0.005102	0.000637	-0.004721
00625	12388667	0.212397	-9.797344	0.174351	-0.003895	0.002277	-0.002187
00626	12388717	0.196162	-9.795090	0.168906	-0.005818	0.001669	0.000060
00627	12388767	0.220237	-9.779859	0.170023	-0.003712	0.003871	0.001217
00628	12388817	0.211012	-9.791307	0.197911	-0.003874	-0.001499	-0.001883
00629	12388867	0.228162	-9.799174	0.182717	-0.003415	-0.000012	-0.003355
00630	12388917	0.196416	-9.776884	0.172476	-0.005311	0.002673	-0.002242
00631	12388967	0.204673	-9.785796	0.172455	-0.003634	-0.002142	-0.003397
00632	12389017	0.218637	-9.786032	0.184938	-0.002189	-0.002310	-0.002954
00633	12389067	0.201877	-9.786148	0.193635	-0.003162	-0.000773	-0.001304
00634	12389117	0.200903	-9.769076	0.193587	-0.005123	0.001940	0.000093
00635	12389167	0.226455	-9.789360	0.191044	-0.005831	-0.000206	-0.000817
00636	12389217	0.221859	-9.796853	0.181056	-0.004002	-0.001338	-0.000697
00637	12389267	0.209598	-9.785193	0.184250	-0.001884	0.000315	-0.002009
00638	12389317	0.222580	-9.788311	0.165704	-0.002016	-0.001533	-0.001255
00639	12389367	0.196991	-9.775238	0.174234	-0.004697	0.001656	0.001784
00640	12389417	0.229542	-9.788587	0.189116	-0.006122	0.002112	-0.000097
00641	12389467	0.211544	-9.771976	0.190465	-0.001302	-0.001070	-0.003879
00642	12389517	0.215684	-9.795506	0.180716	-0.006252	0.004046	-0.001913
00643	12389567	0.210794	-9.776978	0.206000	-0.005331	0.003087	-0.004739
00644	12389617	0.215852	-9.792890	0.180620	-0.005452	0.002091	-0.001318
00645	12389667	0.216623	-9.797114	0.177896	-0.004854	-0.000867	-0.001238
00646	12389717	0.230635	-9.802513	0.186087	-0.002646	-0.001565	0.002245
00647	12389767	0.195119	-9.794908	0.187204	-0.003329	-0.001326	-0.000282
00648	12389817	0.219039	-9.800057	0.170888	-0.007284	0.000156	-0.000778
00649	12389867	0.230132	-9.801769	0.168041	-0.005478	-0.000045	-0.002160
00650	12389917	0.221838	-9.784187	0.190474	-0.001196	-0.000646	-0.000340
00651	12389967	0.226151	-9.781075	0.192336	-0.001614	0.002609	-0.000326
00652	12390017	0.215415	-9.774818	0.177957	-0.004570	-0.000123	-0.000716
00653	12390067	0.221558	-9.787991	0.175057	-0.004367	0.001490	-0.002505
00654	12390117	0.206900	-9.784779	0.186130	-0.003956	0.003885	0.000110
00655	12390167	0.216394	-9.774633	0.181815	-0.002547	0.000649	-0.002383
00656	12390217	0.230715	-9.792855	0.190780	-0.007016	-0.002390	0.002099
00657	12390267	0.238254	-9.803781	0.197498	-0.005610	-0.000560	0.000275
00658	12390317	0.229057	-9.806355	0.187748	-0.003108	0.002227	-0.000166
00659	12390367	0.229626	-9.810481	0.194253	-0.002428	0.003879	-0.001732
00660	12390417	0.208470	-9.787436	0.174695	-0.002168	-0.004571	-0.002798
00661	12390467	0.229781	-9.782334	0.168501	-0.006234	-0.001054	0.000498
00662	12390517	0.219835	-9.788191	0.186512	-0.004563	0.001615	-0.002503
00663	12390567	0.216279	-9.767966	0.164455	-0.007753	0.000033	-0.005736
00664	12390617	0.215167	-9.780252	0.191383	-0.003812	-0.003181	-0.002367
00665	12390667	0.211389	-9.765034	0.186121	-0.003823	-0.003662	-0.000894
00666	12390717	0.213820	-9.778167	0.177968	-0.003043	-0.002071	-0.003296
00667	12390767	0.209550	-9.806199	0.192646	-0.002818	0.002231	-0.000647
00668	12390817	0.211240	-9.795586	0.182727	-0.005471	-0.001747	0.002481
00669	12390867	0.217396	-9.794686	0.175285	-0.004827	0.001805	-0.002212
00670	12390917	0.214990	-9.799006	0.191648	-0.002955	0.001158	-0.003789
00671	12390967	0.245969	-9.803767	0.186857	-0.006457	-0.000160	-0.001678
00672	12391017	0.232826	-9.788421	0.197246	-0.006446	0.001680	-0.001276
00673	12391067	0.221942	-9.782136	0.180549	-0.005217	-0.003207	-0.002687
00674	12391117	0.213625	-9.770145	0.196187	-0.003611	0.000694	-0.003725
00675	12391167	0.224199	-9.793973	0.180529	-0.003479	0.000738	-0.000430
00676	12391217	0.218672	-9.773687	0.183838	0.000828	0.004523	0.000352
00677	12391267	0.223720	-9.793750	0.180840	-0.001208	0.005935	-0.001368
00678	12391317	0.214732	-9.784584	0.194674	-0.006101	0.001652	-0.003584
00679	12391367	0.216671	-9.800924	0.194760	-0.003819	0.002107	-0.004809
00680	12391417	0.230241	-9.804393	0.184330	-0.004952	-0.001392	-0.001752
00681	12391467	0.240588	-9.801770	0.176481	-0.001825	0.003954	-0.002595
00682	12391517	0.215945	-9.798646	0.185193	-0.002851	0.001062	-0.003312
00683	12391567	0.212909	-9.771165	0.185134	-0.004005	0.001176	-0.000547
00684	12391617	0.214344	-9.776890	0.203237	-0.008402	0.002775	-0.001458
00685	12391667	0.213806	-9.771391	0.169122	-0.002707	0.001514	-0.004014
00686	12391717	0.211841	-9.759025	0.181548	-0.004072	-0.000697	-0.000752
00687	12391767	0.224439	-9.792027	0.177623	-0.004656	0.003717	0.000618
00688	12391817	0.232029	-9.789790	0.176709	-0.001224	0.001287	-0.001169
00689	12391867	0.232031	-9.795247	0.192497	-0.003716	0.003147	-0.001856
00690	12391917	0.218903	-9.791631	0.178215	-0.003077	0.004453	-0.000122
00691	12391967	0.221424	-9.793846	0.170305	-0.001875	0.000735	0.000785
00692	12392017	0.215674	-9.787973	0.185120	-0.004266	0.003923	0.003089
00693	12392067	0.235898	-9.803102	0.198035	-0.003841	0.003178	-0.000992
00694	12392117	0.213800	-9.773235	0.181083	-0.003313	0.003540	-0.003455
00695	12392167	0.215162	-9.776726	0.193807	-0.003092	0.002675	-0.002405
00696	12392217	0.223977	-9.772769	0.174488	-0.007336	0.002246	-0.002428
00697	12392267	0.214810	-9.776423	0.172919	-0.004228	0.001137	-0.002921
00698	12392317	0.209622	-9.768784	0.181451	-0.007266	0.002244	-0.002877
00699	12392367	0.224117	-9.783340	0.183175	-0.004706	0.003130	-0.002974
00700	12392417	0.219562	-9.797246	0.173581	-0.005504	-0.004178	-0.002079
00701	12392467	0.206818	-9.772035	0.174735	0.000390	-0.001101	0.000036
00702	12392517	0.218417	-9.792367	0.194790	-0.000385	0.004044	-0.003205
00703	12392567	0.210297	-9.807154	0.193538	-0.003795	-0.000437	-0.002227
00704	12392617	0.220945	-9.800317	0.174178	-0.002345	0.002566	0.001182
00705	12392667	0.222481	-9.782193	0.200727	-0.001809	-0.000396	-0.000310
00706	12392717	0.201021	-9.773185	0.183249	-0.004819	-0.001322	0.000013
00707	12392767	0.212334	-9.760757	0.201690	-0.006258	-0.001683	-0.005525
00708	12392817	0.219640	-9.773889	0.197804	-0.004326	-0.001131	-0.004920
00709	12392867	0.200212	-9.787470	0.170173	-0.000013	-0.000923	-0.004289
00710	12392917	0.202571	-9.795599	0.176536	-0.003868	0.001051	0.000726
00711	12392967	0.209793	-9.781564	0.179644	-0.003931	-0.001349	-0.003062
00712	12393017	0.214814	-9.785408	0.171719	-0.002678	-0.001282	0.000554
00713	12393067	0.229625	-9.789513	0.187960	-0.003003	0.001773	-0.002570
00714	12393117	0.232245	-9.794591	0.181446	-0.004650	0.000326	-0.000202
00715	12393167	0.208875	-9.791652	0.187343	-0.003812	-0.000820	-0.000788
00716	12393217	0.212770	-9.783615	0.192146	-0.002278	0.000273	-0.000560
00717	12393267	0.221201	-9.771104	0.187460	-0.003860	0.002088	0.001215
00718	12393317	0.217096	-9.778345	0.176724	-0.004762	0.000971	-0.000964
00719	12393367	0.216462	-9.766088	0.181451	-0.006966	0.002997	0.000142
00720	12393417	0.213095	-9.764698	0.180614	-0.003322	0.001126	0.001016
00721	12393467	0.216331	-9.782254	0.183709	-0.004779	0.000814	0.002144
00722	12393517	0.226294	-9.787384	0.185470	-0.005597	0.000920	-0.003529
00723	12393567	0.220058	-9.785980	0.181933	-0.008315	0.000906	-0.002174
00724	12393617	0.225393	-9.804461	0.200189	-0.003305	0.001549	-0.000042
00725	12393667	0.233715	-9.799715	0.206863	-0.004440	0.001519	-0.004264
00726	12393717	0.208860	-9.789975	0.185959	-0.002549	0.001913	0.000443
00727	12393767	0.221570	-9.789337	0.185565	-0.004509	0.001969	-0.003047
00728	12393817	0.214909	-9.777733	0.182024	-0.005185	-0.002073	-0.001398
00729	12393867	0.201320	-9.752769	0.182363	-0.001970	-0.001695	-0.003038
00730	12393917	0.218926	-9.772946	0.182031	-0.004561	-0.000348	-0.000973
00731	12393967	0.208875	-9.754186	0.187986	-0.007388	-0.001917	-0.000142
00732	12394017	0.219219	-9.781900	0.193663	-0.006640	0.003812	-0.001811
00733	12394067	0.227424	-9.778397	0.172858	-0.005194	0.002442	-0.001665
00734	12394117	0.203337	-9.795978	0.186441	-0.003937	0.000881	-0.003440
00735	12394167	0.222322	-9.804448	0.182051	-0.002107	-0.000879	0.002830
00736	12394217	0.213276	-9.772505	0.179485	0.000566	-0.003912	-0.002895
00737	12394267	0.212991	-9.790175	0.186855	-0.001126	0.004223	-0.004388
00738	12394317	0.213788	-9.782466	0.194687	-0.005405	0.001890	-0.003683
00739	12394367	0.210237	-9.783209	0.178655	-0.005073	0.002708	-0.000216
00740	12394417	0.198873	-9.770862	0.184916	-0.007233	0.001217	0.000167
00741	12394467	0.215110	-9.784835	0.180843	-0.003567	0.000244	-0.002511
00742	12394517	0.203753	-9.765553	0.167125	-0.006716	0.001000	-0.001313
00743	12394567	0.215785	-9.785063	0.180610	-0.002184	0.000206	-0.002000
00744	12394617	0.221448	-9.790971	0.199190	-0.007043	-0.000975	-0.001355
00745	12394667	0.214856	-9.795054	0.197417	-0.001835	0.000014	-0.003092
00746	12394717	0.210191	-9.804848	0.197501	-0.008691	0.002870	-0.001360
00747	12394767	0.224092	-9.798757	0.198769	-0.004742	-0.000766	0.001168
00748	12394817	0.218743	-9.785288	0.182468	-0.004993	0.002454	0.001638
00749	12394867	0.216957	-9.783113	0.178376	-0.006266	0.001974	-0.001115
00750	12394917	0.218895	-9.791082	0.173408	-0.004268	0.001629	0.001022
00751	12394967	0.221315	-9.788337	0.181645	0.001007	0.001455	-0.002617
00752	12395017	0.214995	-9.767638	0.188736	-0.003712	0.000050	-0.000750
00753	12395067	0.220529	-9.777784	0.174077	-0.003199	-0.002366	-0.002815
00754	12395117	0.213682	-9.771555	0.195171	-0.005522	-0.001040	0.003161
00755	12395167	0.203292	-9.781305	0.188286	-0.005689	-0.000146	-0.000200
00756	12395217	0.207751	-9.787241	0.207798	-0.000948	0.000746	-0.001910
00757	12395267	0.211600	-9.783563	0.187783	-0.004323	0.004366	0.000752
00758	12395317	0.229708	-9.811319	0.171484	-0.001500	-0.000265	-0.002296
00759	12395367	0.218989	-9.804607	0.173560	-0.005958	0.002073	-0.003009
00760	12395417	0.226333	-9.789862	0.177952	-0.001851	-0.001343	-0.003452
00761	12395467	0.219721	-9.799684	0.178141	-0.005051	-0.001166	-0.001457
00762	12395517	0.209012	-9.781778	0.177620	-0.008465	0.000680	-0.000508
00763	12395567	0.200050	-9.756385	0.169466	-0.002152	0.002266	-0.003275
00764	12395617	0.207796	-9.770724	0.182631	-0.002829	-0.001911	-0.005469
00765	12395667	0.220051	-9.797744	0.159929	-0.003325	0.003291	0.001095
00766	12395717	0.217146	-9.782302	0.187517	-0.004528	0.002515	-0.003360
00767	12395767	0.236910	-9.789946	0.190778	-0.004455	0.000623	0.000697
00768	12395817	0.225279	-9.801719	0.207053	-0.006823	0.002581	0.000136
00769	12395867	0.233032	-9.814092	0.184790	-0.004132	0.002206	-0.001409
00770	12395917	0.205686	-9.787386	0.184774	-0.001313	-0.001804	0.001993
00771	12395967	0.220670	-9.787375	0.196447	-0.001363	0.003906	0.000481
00772	12396017	0.225115	-9.804959	0.170271	-0.003696	0.001569	-0.001415
00773	12396067	0.217047	-9.791564	0.172682	-0.002483	0.001784	0.000958
00774	12396117	0.220170	-9.761954	0.177729	-0.001089	0.000297	0.002194
00775	12396167	0.216721	-9.794755	0.178619	-0.005961	-0.001998	-0.004698
00776	12396217	0.215535	-9.767577	0.184863	-0.006229	0.001813	-0.001150
00777	12396267	0.215818	-9.796254	0.199049	-0.005358	0.001635	-0.002113
00778	12396317	0.227957	-9.798055	0.171930	-0.002675	0.000518	-0.002450
00779	12396367	0.213146	-9.810613	0.189449	-0.005512	-0.000624	0.000021
00780	12396417	0.231063	-9.799976	0.191094	-0.004745	-0.003612	0.001156
00781	12396467	0.214489	-9.800881	0.189979	-0.002799	-0.000741	-0.002615
00782	12396517	0.208364	-9.777502	0.161404	-0.005277	0.001124	0.000224
00783	12396567	0.227988	-9.788431	0.178194	-0.001987	0.000986	-0.002065
00784	12396617	0.232646	-9.784690	0.185332	-0.004750	-0.000678	-0.001966
00785	12396667	0.214422	-9.791391	0.190071	-0.007293	0.003918	-0.005368
00786	12396717	0.215954	-9.766665	0.187827	-0.000001	0.000118	-0.000147
00787	12396767	0.236588	-9.780757	0.195335	-0.003967	0.005177	-0.002006
00788	12396817	0.205465	-9.781752	0.188517	-0.005011	-0.001493	-0.002868
00789	12396867	0.221934	-9.787405	0.183897	-0.004429	-0.002638	-0.000827
00790	12396917	0.224279	-9.793539	0.198769	-0.002961	-0.000353	0.000910
00791	12396967	0.226741	-9.794118	0.161171	-0.003408	-0.001789	-0.003259
00792	12397017	0.224426	-9.803219	0.165036	-0.001587	0.002705	0.000088
00793	12397067	0.214216	-9.793906	0.183725	-0.001848	0.001629	-0.003087
00794	12397117	0.214958	-9.778110	0.175509	-0.006384	0.000780	0.000703
00795	12397167	0.207396	-9.783702	0.177897	-0.006840	0.000032	-0.000033
00796	12397217	0.204645	-9.771297	0.171292	-0.005307	0.000960	0.000032
00797	12397267	0.219992	-9.784098	0.198020	-0.004340	0.002490	-0.004257
00798	12397317	0.238816	-9.787464	0.170378	-0.004549	0.000064	-0.003988
00799	12397367	0.210279	-9.803966	0.186278	-0.006713	-0.001491	-0.003344
00800	12397417	0.210529	-9.794028	0.173452	-0.004093	-0.000444	-0.004146
00801	12397467	0.231681	-9.804308	0.179958	-0.007590	0.001374	-0.000155
00802	12397517	0.219338	-9.790473	0.180757	-0.004959	0.000160	0.000825
00803	12397567	0.211286	-9.784028	0.202190	-0.005056	0.001191	-0.000034
00804	12397617	0.227391	-9.804515	0.190351	-0.003719	-0.000887	-0.001173
00805	12397667	0.221002	-9.805136	0.178891	-0.002916	0.002261	-0.001444
00806	12397717	0.216485	-9.803285	0.178434	-0.003947	0.006633	-0.001932
00807	12397767	0.218236	-9.776067	0.183897	-0.004946	0.002842	-0.001051
00808	12397817	0.201363	-9.775688	0.191669	-0.003199	0.005023	-0.004280
00809	12397867	0.220337	-9.778385	0.197404	-0.002942	0.001226	-0.000489
00810	12397917	0.228220	-9.776914	0.200656	-0.003641	0.002760	-0.002241
00811	12397967	0.218389	-9.778681	0.184189	-0.003126	-0.001123	0.002127
00812	12398017	0.237309	-9.813543	0.183065	-0.004227	0.002105	-0.002147
00813	12398067	0.227711	-9.802160	0.175811	-0.002981	0.001062	-0.003310
00814	12398117	0.236422	-9.814853	0.175173	-0.005109	0.001675	-0.000388
00815	12398167	0.239125	-9.804746	0.214767	-0.004081	0.003758	-0.001756
00816	12398217	0.217257	-9.773046	0.187009	-0.004586	0.004716	0.000177
00817	12398267	0.204519	-9.783622	0.185993	-0.000182	0.002951	-0.000837
00818	12398317	0.222988	-9.749681	0.184381	-0.004086	-0.000574	-0.004178
00819	12398367	0.225449	-9.775177	0.163011	-0.003795	-0.001238	0.001711
00820	12398417	0.222877	-9.778464	0.173548	-0.006513	0.003877	0.000016
00821	12398467	0.217887	-9.788681	0.186028	-0.005782	-0.001273	-0.000879
00822	12398517	0.229104	-9.792485	0.180491	-0.006746	0.002296	0.001129
00823	12398567	0.235047	-9.810151	0.192765	-0.003079	-0.000548	0.000463
00824	12398617	0.212277	-9.788173	0.164055	-0.003162	0.003000	-0.000992
00825	12398667	0.219681	-9.796862	0.195212	-0.004081	0.003592	-0.003325
00826	12398717	0.235029	-9.799923	0.175010	-0.002709	0.003781	-0.001215
00827	12398767	0.217368	-9.787910	0.197598	-0.004137	0.004563	-0.000917
00828	12398817	0.221374	-9.781850	0.176717	-0.003529	-0.001620	0.001710
00829	12398867	0.220962	-9.779381	0.169673	-0.006511	0.003551	-0.001973
00830	12398917	0.198813	-9.763310	0.172285	-0.004955	0.005328	0.001528
00831	12398967	0.219005	-9.784419	0.187511	-0.003991	-0.000177	0.000114
00832	12399017	0.226351	-9.784817	0.203966	-0.004443	0.003071	-0.001213
00833	12399067	0.228981	-9.791250	0.192697	-0.007308	0.002371	-0.004320
00834	12399117	0.227604	-9.804501	0.188874	-0.005777	-0.001436	-0.000594
00835	12399167	0.223220	-9.793523	0.181646	-0.007889	0.000627	0.000195
00836	12399217	0.199075	-9.768650	0.179735	-0.004992	0.002295	0.000036
00837	12399267	0.228627	-9.793220	0.197010	-0.005236	0.004030	0.000846
00838	12399317	0.190407	-9.773865	0.172624	-0.003248	-0.000031	0.001720
00839	12399367	0.220387	-9.790644	0.177391	-0.006289	-0.001448	-0.002130
00840	12399417	0.210082	-9.784763	0.171977	-0.004475	0.001810	-0.002339
00841	12399467	0.217539	-9.794611	0.185662	-0.001723	0.001893	-0.001386
00842	12399517	0.200359	-9.753569	0.187056	-0.006855	0.001383	-0.002366
00843	12399567	0.220389	-9.771079	0.185207	-0.001197	0.002151	-0.004944
00844	12399617	0.227157	-9.785142	0.179604	-0.003045	0.003391	-0.000638
00845	12399667	0.218844	-9.784424	0.187772	-0.003605	0.001534	-0.003816
00846	12399717	0.199739	-9.799973	0.196185	-0.007481	0.001788	-0.003388
00847	12399767	0.213864	-9.787707	0.197166	-0.002246	0.003833	0.003498
00848	12399817	0.204734	-9.764417	0.186869	-0.004857	0.001971	-0.001246
00849	12399867	0.217623	-9.780745	0.199353	-0.003836	0.003982	-0.000017
00850	12399917	0.228841	-9.786191	0.197417	-0.004661	0.001571	0.000075
00851	12399967	0.208615	-9.779917	0.173971	-0.005320	0.002079	0.000755
00852	12400017	0.217937	-9.795063	0.178967	-0.006256	-0.002015	-0.002725
00853	12400067	0.220590	-9.770419	0.182987	-0.003808	-0.000224	0.001152
00854	12400117	0.221365	-9.781054	0.165078	-0.002437	-0.000265	-0.002122
00855	12400167	0.228985	-9.796734	0.173192	-0.005632	0.001576	-0.004794
00856	12400217	0.227205	-9.795616	0.175839	-0.002301	0.001544	-0.001533
00857	12400267	0.222733	-9.797096	0.176055	-0.005338	0.003524	-0.001644
00858	12400317	0.223342	-9.802494	0.188782	-0.004903	-0.002078	0.000186
00859	12400367	0.211458	-9.809095	0.176214	-0.002509	-0.002272	-0.004372
00860	12400417	0.213761	-9.793722	0.180644	-0.005655	0.000589	0.000076
00861	12400467	0.222377	-9.790245	0.177737	-0.005568	0.001647	-0.002708
00862	12400517	0.207768	-9.783582	0.164419	-0.003272	0.001049	0.000329
00863	12400567	0.211960	-9.774234	0.177403	-0.001902	0.003230	-0.001334
00864	12400617	0.205210	-9.768379	0.176857	-0.005851	-0.001647	-0.002308
00865	12400667	0.211937	-9.780275	0.199867	-0.002822	0.000761	-0.002783
00866	12400717	0.232079	-9.795705	0.185815	-0.006501	0.002252	0.000980
00867	12400767	0.208020	-9.786663	0.180033	-0.002898	-0.000949	-0.001992
00868	12400817	0.207358	-9.786122	0.174999	-0.002593	0.001801	-0.000470
00869	12400867	0.235460	-9.792419	0.190923	-0.003165	0.003590	-0.003383
00870	12400917	0.239752	-9.813418	0.186794	-0.004683	0.002149	-0.001656
00871	12400967	0.232505	-9.802270	0.181069	-0.005944	0.004645	-0.001347
00872	12401017	0.206545	-9.782112	0.176196	-0.002188	-0.000937	-0.000941
00873	12401067	0.206741	-9.788164	0.184814	-0.003113	0.000215	0.001604
00874	12401117	0.247169	-9.786859	0.162780	-0.005240	0.001562	0.000493
00875	12401167	0.241202	-9.787738	0.168256	-0.005703	0.000032	-0.000989
00876	12401217	0.201938	-9.768665	0.193429	-0.003407	0.000597	0.003018
00877	12401267	0.214007	-9.785160	0.179798	-0.001182	0.001431	-0.003460
00878	12401317	0.207746	-9.779629	0.169745	-0.003602	-0.000770	-0.000802
00879	12401367	0.225704	-9.794956	0.193837	-0.003042	0.004824	-0.002187
00880	12401417	0.220302	-9.789653	0.168024	-0.000321	0.000516	-0.002856
00881	12401467	0.226539	-9.802319	0.179612	-0.006447	0.001348	0.000590
00882	12401517	0.218114	-9.778790	0.185368	-0.005990	0.003029	-0.001451
00883	12401567	0.217879	-9.781918	0.188076	-0.005458	-0.000735	-0.000381
00884	12401617	0.213315	-9.784057	0.200350	-0.004473	0.001707	0.000649
00885	12401667	0.220025	-9.774036	0.186179	-0.003649	0.000547	-0.003424
00886	12401717	0.227295	-9.771288	0.183317	-0.001734	-0.000053	0.000184
00887	12401767	0.207604	-9.767719	0.181949	-0.003450	0.000391	-0.002977
00888	12401817	0.206997	-9.787999	0.188777	-0.008094	0.000737	-0.001492
00889	12401867	0.212998	-9.772990	0.189175	-0.009084	-0.000350	-0.001844
00890	12401917	0.226745	-9.806743	0.189969	-0.003852	-0.000998	0.000250
00891	12401967	0.215604	-9.807764	0.185518	-0.003279	0.002108	-0.001366
00892	12402017	0.229973	-9.821863	0.203671	-0.002378	0.003033	-0.001203
00893	12402067	0.229973	-9.794399	0.191934	-0.002659	-0.000272	-0.002122
00894	12402117	0.224489	-9.798631	0.168846	-0.004855	-0.001957	-0.003979
00895	12402167	0.207153	-9.779043	0.192962	-0.004821	-0.000533	-0.000767
00896	12402217	0.219713	-9.775926	0.185431	-0.004359	0.000060	0.000063
00897	12402267	0.214302	-9.773338	0.182038	-0.005854	0.001707	-0.001874
00898	12402317	0.217442	-9.773243	0.178639	-0.007829	0.001250	-0.003184
00899	12402367	0.221220	-9.781601	0.185957	-0.002959	0.001211	-0.001178
00900	12402417	0.226972	-9.783104	0.179888	-0.004501	0.000380	0.000165
00901	12402467	0.224561	-9.789840	0.183668	-0.007086	-0.001258	-0.004291
00902	12402517	0.225661	-9.797623	0.182614	-0.001955	0.003111	0.001387
00903	12402567	0.231257	-9.796288	0.208123	-0.003913	0.001198	0.001227
00904	12402617	0.223131	-9.798385	0.183094	-0.001924	0.002876	-0.001623
00905	12402667	0.233994	-9.792686	0.191863	-0.003558	0.004042	-0.001036
00906	12402717	0.222125	-9.780286	0.193048	-0.005006	0.000311	0.000937
00907	12402767	0.227011	-9.779227	0.174874	-0.003783	-0.002453	-0.003248
00908	12402817	0.225667	-9.771600	0.186604	-0.006545	-0.000858	-0.002850
00909	12402867	0.214558	-9.764782	0.197115	-0.006367	0.001957	-0.000749
00910	12402917	0.199223	-9.786055	0.180094	-0.003322	0.002461	-0.003382
00911	12402967	0.216945	-9.783266	0.197681	-0.003736	0.001426	-0.001787
00912	12403017	0.207465	-9.778864	0.166351	-0.004923	0.000763	0.001484
00913	12403067	0.222459	-9.804587	0.184950	-0.004644	-0.000236	-0.000897
00914	12403117	0.226137	-9.788885	0.169549	-0.007533	0.000297	0.001228
00915	12403167	0.219618	-9.785681	0.187336	-0.005317	-0.000121	-0.002081
00916	12403217	0.204274	-9.794014	0.177129	-0.005270	0.003695	0.000700
00917	12403267	0.224233	-9.780891	0.172197	-0.005339	0.001457	-0.002745
00918	12403317	0.227716	-9.781101	0.173842	-0.006769	0.000340	0.000779
00919	12403367	0.229282	-9.788460	0.175037	-0.007071	-0.000379	-0.002781
00920	12403417	0.225627	-9.790445	0.193588	-0.002239	0.000807	-0.000416
00921	12403467	0.224532	-9.780319	0.181822	-0.003218	0.000666	0.002407
00922	12403517	0.228870	-9.789138	0.203639	-0.002578	0.000216	-0.001607
00923	12403567	0.206747	-9.793635	0.185009	-0.005540	0.001515	-0.004213
00924	12403617	0.228322	-9.810018	0.172488	-0.003739	-0.001578	-0.000424
00925	12403667	0.245773	-9.797678	0.186831	-0.004245	0.003415	-0.001427
00926	12403717	0.212339	-9.792134	0.184459	-0.006218	0.000925	-0.002550
00927	12403767	0.230031	-9.794749	0.183430	-0.006311	0.001860	-0.003508
00928	12403817	0.209837	-9.770140	0.187223	-0.003891	0.003655	0.001591
00929	12403867	0.220666	-9.789792	0.192879	-0.004689	0.000044	-0.003070
00930	12403917	0.221348	-9.783293	0.203071	-0.007685	0.002100	0.001238
00931	12403967	0.205698	-9.776597	0.186950	-0.003212	0.001045	-0.000764
00932	12404017	0.226988	-9.765889	0.186613	-0.004800	0.000791	-0.001562
00933	12404067	0.226747	-9.790897	0.193122	-0.002357	0.000355	0.000224
00934	12404117	0.211400	-9.772449	0.184408	-0.001650	0.000269	-0.001474
00935	12404167	0.229466	-9.797716	0.206750	-0.000966	0.000665	-0.002666
00936	12404217	0.221632	-9.793115	0.178709	-0.005493	0.002591	-0.000623
00937	12404267	0.220663	-9.791701	0.194342	-0.003825	0.001358	-0.000826
00938	12404317	0.212526	-9.782098	0.195296	-0.004985	0.000764	0.001196
00939	12404367	0.217295	-9.779422	0.179491	-0.002652	0.001504	-0.003777
00940	12404417	0.230482	-9.789998	0.167966	-0.003616	0.001718	-0.000826
00941	12404467	0.208891	-9.780248	0.195816	-0.004036	-0.000329	-0.003590
00942	12404517	0.209721	-9.789455	0.177529	-0.006794	-0.000083	-0.001847
00943	12404567	0.217141	-9.775491	0.185686	-0.004143	0.001057	-0.003707
00944	12404617	0.210366	-9.783359	0.183014	-0.006031	0.001223	-0.000174
00945	12404667	0.205258	-9.773702	0.183393	-0.004038	-0.001295	-0.001992
00946	12404717	0.223032	-9.794448	0.189494	-0.004566	0.005737	-0.000030
00947	12404767	0.213159	-9.803926	0.195765	-0.004340	0.001379	-0.001851
00948	12404817	0.237624	-9.807179	0.180268	-0.007987	0.003345	-0.003178
00949	12404867	0.213012	-9.783518	0.179970	-0.002924	0.003249	-0.000690
00950	12404917	0.213241	-9.763683	0.154971	-0.005382	0.002614	-0.004978
00951	12404967	0.223524	-9.787132	0.192407	-0.004748	0.001883	-0.005307
00952	12405017	0.226942	-9.786121	0.191238	-0.001222	0.001855	-0.000827
00953	12405067	0.211205	-9.772130	0.178655	-0.008377	0.000697	-0.000591
00954	12405117	0.217021	-9.790926	0.171582	-0.002716	0.002312	-0.003451
00955	12405167	0.216631	-9.793097	0.173741	-0.002614	0.001609	0.001068
00956	12405217	0.213275	-9.786057	0.175391	-0.004847	0.001241	-0.001369
00957	12405267	0.210540	-9.794666	0.178143	-0.001581	0.000910	-0.003079
00958	12405317	0.232453	-9.800508	0.189751	-0.001871	0.004134	-0.002291
00959	12405367	0.221920	-9.793693	0.170259	-0.006461	0.000865	0.001518
00960	12405417	0.218963	-9.786254	0.193022	-0.008590	0.001042	-0.003634
00961	12405467	0.223696	-9.783574	0.176802	-0.005144	0.000432	-0.000824
00962	12405517	0.203953	-9.773369	0.191797	-0.002784	-0.000396	-0.001415
00963	12405567	0.219025	-9.789467	0.185817	-0.007389	-0.001711	-0.003523
00964	12405617	0.209153	-9.774447	0.173035	-0.006553	0.002368	-0.003856
00965	12405667	0.214226	-9.776951	0.201976	-0.006036	-0.000815	-0.003589
00966	12405717	0.218820	-9.791280	0.180774	-0.001299	0.000301	-0.002086
00967	12405767	0.239372	-9.793785	0.174822	-0.002472	-0.000265	-0.003054
00968	12405817	0.205494	-9.774666	0.153669	-0.003777	0.004709	-0.004523
00969	12405867	0.213145	-9.793979	0.181365	-0.006030	0.000121	-0.002395
00970	12405917	0.218235	-9.784225	0.184218	-0.005455	-0.001033	-0.003847
00971	12405967	0.203563	-9.774949	0.186071	-0.003517	0.004749	-0.002314
00972	12406017	0.213113	-9.793550	0.184399	-0.008585	0.001983	-0.002506
00973	12406067	0.220579	-9.768200	0.177700	-0.006125	0.000356	0.001100
00974	12406117	0.214462	-9.782638	0.200837	-0.004034	0.000840	-0.000537
00975	12406167	0.219130	-9.780854	0.181609	-0.005146	0.001658	-0.000403
00976	12406217	0.218170	-9.797738	0.183323	-0.003330	0.000653	-0.001536
00977	12406267	0.198540	-9.777351	0.184136	-0.003412	-0.000436	0.001346
00978	12406317	0.222787	-9.789162	0.185180	-0.005618	0.004456	-0.001284
00979	12406367	0.222354	-9.787954	0.182582	-0.004527	0.004245	-0.003245
00980	12406417	0.240181	-9.793023	0.187801	-0.003857	-0.001773	0.000308
00981	12406467	0.220184	-9.786160	0.187668	-0.001446	0.000619	-0.004166
00982	12406517	0.218137	-9.785458	0.202204	-0.005441	0.002683	-0.002574
00983	12406567	0.220850	-9.780045	0.176119	-0.004936	-0.001214	-0.002278
00984	12406617	0.210556	-9.783357	0.183352	-0.004169	0.002093	-0.001330
00985	12406667	0.214184	-9.774708	0.194607	-0.003334	-0.001082	-0.000101
00986	12406717	0.215228	-9.777675	0.187840	-0.004818	-0.000790	-0.000190
00987	12406767	0.214465	-9.791970	0.191301	-0.002649	0.002575	-0.001176
00988	12406817	0.220619	-9.795755	0.195370	-0.001995	0.003134	-0.001846
00989	12406867	0.211661	-9.798022	0.196640	-0.007043	0.006013	-0.001304
00990	12406917	0.217137	-9.800454	0.173700	-0.003862	0.002025	-0.004477
00991	12406967	0.243924	-9.792897	0.198039	-0.005572	-0.000256	-0.001374
00992	12407017	0.205355	-9.784444	0.187955	-0.002417	0.002383	-0.000755
00993	12407067	0.216847	-9.770280	0.170619	-0.001908	-0.001381	0.001815
00994	12407117	0.209765	-9.770087	0.183404	-0.001288	0.000818	-0.002789
00995	12407167	0.211530	-9.784581	0.186418	-0.004341	0.000215	-0.002559
00996	12407217	0.218328	-9.783833	0.189857	-0.001932	0.002298	0.000554
00997	12407267	0.238035	-9.795364	0.184224	-0.001558	0.000433	0.000185
00998	12407317	0.211802	-9.787242	0.174408	-0.006644	0.000378	0.000621
00999	12407367	0.218740	-9.787744	0.181553	-0.007790	0.001321	-0.000556
01000	12407417	0.229168	-9.795192	0.165624	-0.001256	0.001981	-0.001791
01001	12407467	0.229599	-9.784683	0.192084	-0.006738	0.002566	0.000180
01002	12407517	0.234367	-9.803057	0.187398	-0.001125	0.002890	-0.001564
01003	12407567	0.226808	-9.793733	0.192392	-0.004062	-0.001291	0.000829
01004	12407617	0.213344	-9.792889	0.172477	-0.005249	0.000751	-0.000919
01005	12407667	0.230058	-9.780702	0.180631	-0.003850	0.001201	0.001929
01006	12407717	0.222337	-9.792694	0.182585	-0.004520	0.001089	-0.000730
01007	12407767	0.223776	-9.794901	0.188232	-0.006188	0.001088	-0.001751
01008	12407817	0.194872	-9.766495	0.184667	-0.004108	-0.001065	-0.001284
01009	12407867	0.219910	-9.786695	0.176332	-0.005281	-0.001410	-0.001126
01010	12407917	0.216754	-9.803968	0.186526	-0.001356	-0.003184	-0.000759
01011	12407967	0.227804	-9.800089	0.174694	-0.002047	-0.001551	-0.002255
01012	12408017	0.228160	-9.797673	0.186969	-0.007091	0.001363	-0.002261
01013	12408067	0.228430	-9.798763	0.181233	-0.000446	0.004642	-0.003000
01014	12408117	0.221089	-9.774076	0.189733	-0.005634	0.001875	-0.001263
01015	12408167	0.189869	-9.766795	0.184923	-0.004781	0.000311	0.000198
01016	12408217	0.227923	-9.779788	0.181356	-0.002382	0.003355	0.000816
01017	12408267	0.206520	-9.787284	0.188593	-0.007657	-0.000002	-0.001719
01018	12408317	0.206532	-9.781452	0.179281	-0.005310	-0.001312	-0.000130
01019	12408367	0.212687	-9.779410	0.174901	-0.004055	0.002549	-0.000942
01020	12408417	0.196091	-9.770762	0.185369	-0.002479	0.000154	-0.000674
01021	12408467	0.210574	-9.792050	0.162482	-0.004783	0.001471	0.000207
01022	12408517	0.210103	-9.805192	0.183312	-0.004973	0.002376	0.000723
01023	12408567	0.203811	-9.784973	0.190332	-0.003647	0.000753	0.001446
01024	12408617	0.227745	-9.788461	0.189604	-0.000486	0.000639	-0.002183
01025	12408667	0.219339	-9.789391	0.196729	-0.003992	0.001716	0.001167
01026	12408717	0.222045	-9.775978	0.190637	-0.005120	-0.000278	0.000739
01027	12408767	0.202636	-9.773588	0.189391	-0.003450	0.001457	-0.003677
01028	12408817	0.219183	-9.782333	0.169606	-0.006265	-0.000329	-0.000057
01029	12408867	0.217940	-9.779031	0.170002	-0.008231	0.002316	0.001082
01030	12408917	0.237939	-9.782854	0.187785	-0.003558	-0.002384	-0.002868
01031	12408967	0.227517	-9.803631	0.172927	-0.006118	0.001963	-0.000976
01032	12409017	0.222010	-9.796227	0.196275	-0.001867	0.000235	0.000767
01033	12409067	0.208438	-9.784985	0.179257	-0.003394	-0.000244	0.000002
01034	12409117	0.218571	-9.800605	0.185815	-0.000481	0.001778	0.001094
01035	12409167	0.224851	-9.794436	0.174233	-0.007801	0.000577	-0.002135
01036	12409217	0.198182	-9.768479	0.192951	-0.007329	0.000977	0.000978
01037	12409267	0.198255	-9.781027	0.176226	-0.003755	-0.000998	-0.001381
01038	12409317	0.227127	-9.787001	0.171292	-0.004309	-0.002751	-0.001583
01039	12409367	0.230723	-9.780701	0.196116	-0.005863	0.000802	-0.003516
01040	12409417	0.213550	-9.788747	0.181099	-0.007279	-0.001027	-0.002492
01041	12409467	0.212851	-9.773623	0.168846	-0.006558	0.003928	0.000703
01042	12409517	0.220213	-9.793865	0.195213	-0.007526	0.002965	-0.003821
01043	12409567	0.233372	-9.808487	0.169319	-0.004803	-0.000538	-0.001890
01044	12409617	0.220026	-9.794372	0.181592	0.003966	0.004783	-0.002653
01045	12409667	0.236442	-9.792163	0.175066	-0.003508	-0.001704	-0.000042
01046	12409717	0.229996	-9.807558	0.167965	-0.002574	0.004289	-0.000332
01047	12409767	0.228202	-9.796672	0.168132	-0.003838	0.001615	-0.001174
01048	12409817	0.208507	-9.788658	0.186918	-0.004981	0.003498	-0.002059
01049	12409867	0.223006	-9.782240	0.182298	-0.004558	0.004027	-0.003441
01050	12409917	0.224986	-9.778521	0.188536	-0.002778	0.002684	-0.000093
01051	12409967	0.227727	-9.794008	0.164372	-0.001837	0.000891	-0.001389
01052	12410017	0.221461	-9.790600	0.184483	-0.003430	0.000404	-0.005199
01053	12410067	0.192487	-9.771639	0.193380	-0.007881	0.001205	-0.000309
01054	12410117	0.230522	-9.793690	0.176777	-0.004381	-0.000545	-0.001325
01055	12410167	0.198944	-9.791270	0.194382	-0.006879	0.005936	-0.001764
01056	12410217	0.221525	-9.806931	0.182756	-0.005651	-0.000790	-0.000938
01057	12410267	0.203803	-9.787392	0.177575	-0.004230	-0.001350	-0.003221
01058	12410317	0.222635	-9.796171	0.178007	-0.005934	0.005273	0.000150
01059	12410367	0.203685	-9.768754	0.200162	-0.004126	-0.001414	-0.002646
01060	12410417	0.221872	-9.795615	0.187022	-0.007796	0.000530	0.000067
01061	12410467	0.204077	-9.769912	0.167531	-0.003959	0.001436	-0.000196
01062	12410517	0.202399	-9.767938	0.191979	-0.005522	0.002640	0.001613
01063	12410567	0.181922	-9.780674	0.185926	-0.001074	0.002199	-0.000644
01064	12410617	0.224990	-9.776824	0.186599	-0.005285	-0.000005	0.000473
01065	12410667	0.218364	-9.795099	0.181367	-0.006215	0.000784	-0.001026
01066	12410717	0.205130	-9.764849	0.177985	-0.008300	0.004327	-0.001992
01067	12410767	0.210987	-9.798347	0.186479	-0.004197	0.000585	-0.003114
01068	12410817	0.216789	-9.781857	0.182571	-0.003354	0.001278	-0.003209
01069	12410867	0.222373	-9.800190	0.176785	-0.006424	0.003355	-0.003509
01070	12410917	0.218875	-9.786493	0.193365	-0.006521	0.001550	-0.000574
01071	12410967	0.224879	-9.781462	0.179453	-0.004089	0.004630	-0.001398
01072	12411017	0.229780	-9.789243	0.180101	-0.005323	0.001923	-0.003426
01073	12411067	0.215771	-9.767170	0.183785	-0.005492	-0.001091	-0.005874
01074	12411117	0.217502	-9.784479	0.184410	-0.006637	0.001195	-0.000960
01075	12411167	0.218485	-9.798098	0.191508	-0.003230	0.002841	0.000934
01076	12411217	0.231099	-9.795083	0.190643	-0.004136	0.003112	-0.000188
01077	12411267	0.223131	-9.787838	0.191854	-0.006330	-0.000446	0.000411
01078	12411317	0.211358	-9.793131	0.171523	-0.004900	0.002366	0.004686
01079	12411367	0.226129	-9.794463	0.193127	-0.004699	0.003781	-0.000981
01080	12411417	0.227933	-9.789233	0.193323	-0.002948	-0.000353	-0.001620
01081	12411467	0.210526	-9.794827	0.188383	-0.001481	0.000568	-0.005335
01082	12411517	0.223491	-9.793388	0.198193	-0.003207	0.002930	-0.002051
01083	12411567	0.213403	-9.784551	0.186257	-0.003190	0.001582	-0.000224
01084	12411617	0.217382	-9.795545	0.179031	-0.001916	-0.001527	-0.000021
01085	12411667	0.225879	-9.782829	0.176516	-0.004556	0.004201	-0.001558
01086	12411717	0.234056	-9.809402	0.199206	-0.006752	0.004137	0.001717
01087	12411767	0.225175	-9.795432	0.193125	-0.003794	0.002147	-0.001729
01088	12411817	0.232032	-9.804277	0.187836	-0.003430	0.003929	-0.002011
01089	12411867	0.218370	-9.783513	0.183948	-0.005508	0.002024	0.000421
01090	12411917	0.213553	-9.793169	0.175941	-0.002631	0.004175	0.000748
01091	12411967	0.216519	-9.792794	0.169400	-0.004555	0.003004	-0.001083
01092	12412017	0.215920	-9.788760	0.183903	-0.008241	0.001000	-0.004092
01093	12412067	0.206059	-9.765774	0.177904	-0.004037	0.002015	-0.000735
01094	12412117	0.230603	-9.779187	0.175153	-0.000826	0.002588	-0.000328
01095	12412167	0.224773	-9.795448	0.177983	-0.002754	0.000649	-0.001741
01096	12412217	0.227753	-9.784360	0.184718	-0.004244	-0.002029	-0.003225
01097	12412267	0.216067	-9.774371	0.173872	-0.008291	0.000612	-0.003263
01098	12412317	0.215688	-9.800888	0.185159	-0.008921	0.002079	-0.006264
01099	12412367	0.218933	-9.778594	0.173070	-0.001484	0.001025	-0.001775
01100	12412417	0.232766	-9.808075	0.188686	-0.007264	0.001600	-0.003293
01101	12412467	0.220963	-9.811296	0.172939	-0.006176	-0.000247	0.000217
01102	12412517	0.219795	-9.787381	0.189983	-0.003836	-0.001364	0.001521
01103	12412567	0.224629	-9.792391	0.180074	-0.006265	0.004290	-0.005749
01104	12412617	0.226979	-9.771324	0.185123	-0.006349	0.000367	0.002049
01105	12412667	0.226157	-9.813235	0.179851	-0.006399	-0.001379	0.000534
01106	12412717	0.238770	-9.773485	0.181127	-0.000889	0.001585	0.000118
01107	12412767	0.217914	-9.784043	0.187897	-0.001834	0.002057	0.000414
01108	12412817	0.215873	-9.787344	0.184517	-0.005580	0.002182	-0.000571
01109	12412867	0.216955	-9.795220	0.188102	-0.005835	-0.000215	-0.002791
01110	12412917	0.228971	-9.788446	0.189513	-0.003625	0.001889	-0.003014
01111	12412967	0.239918	-9.805654	0.191117	-0.004032	0.003460	-0.005183
01112	12413017	0.234388	-9.819316	0.180426	-0.000708	-0.001413	-0.001695
01113	12413067	0.220393	-9.788815	0.175554	-0.005809	-0.001660	0.001552
01114	12413117	0.208907	-9.799687	0.179054	-0.005193	-0.000072	-0.000905
01115	12413167	0.217744	-9.798025	0.170818	-0.004357	-0.000253	-0.001935
01116	12413217	0.226264	-9.794247	0.178751	-0.003409	0.002150	-0.002309
01117	12413267	0.216792	-9.768423	0.188747	-0.007486	-0.000341	-0.000834
01118	12413317	0.214799	-9.781051	0.191048	-0.002075	-0.000437	-0.000311
01119	12413367	0.213144	-9.775591	0.174002	-0.002612	0.002331	0.000225
01120	12413417	0.208051	-9.773567	0.192466	-0.002936	-0.002781	-0.002848
01121	12413467	0.217061	-9.782898	0.173765	-0.002178	0.002788	-0.001793
01122	12413517	0.213563	-9.783774	0.165803	-0.004917	0.000288	-0.001929
01123	12413567	0.237455	-9.803048	0.189521	-0.002299	-0.000439	0.000335
01124	12413617	0.229744	-9.801696	0.188016	-0.004230	0.003146	0.000362
01125	12413667	0.227562	-9.807431	0.188593	-0.002549	0.000073	-0.002543
01126	12413717	0.241035	-9.810595	0.204986	-0.005548	0.002018	-0.001629
01127	12413767	0.215968	-9.791868	0.184948	-0.005947	0.001460	-0.003811
01128	12413817	0.222301	-9.791285	0.198943	-0.002243	0.002623	-0.004457
01129	12413867	0.218130	-9.771361	0.180700	-0.003739	-0.000600	-0.002994
01130	12413917	0.225663	-9.773271	0.187326	-0.003204	-0.001458	-0.002135
01131	12413967	0.226387	-9.789515	0.179726	-0.003397	-0.002235	-0.001210
01132	12414017	0.230366	-9.775681	0.178474	-0.003090	-0.004237	-0.003977
01133	12414067	0.220552	-9.784594	0.194305	-0.004245	0.002368	-0.001661
01134	12414117	0.232387	-9.799870	0.194819	-0.001168	-0.000933	-0.000474
01135	12414167	0.217530	-9.812314	0.189851	-0.001878	0.002509	0.000543
01136	12414217	0.203250	-9.783604	0.193449	-0.001565	0.001935	0.002208
01137	12414267	0.213529	-9.773668	0.188141	-0.002295	0.002432	-0.000899
01138	12414317	0.214400	-9.775985	0.169670	-0.003891	0.000272	-0.001067
01139	12414367	0.197669	-9.764222	0.193554	-0.002464	0.001620	-0.001959
01140	12414417	0.209734	-9.789844	0.187904	-0.003444	-0.000915	-0.002065
01141	12414467	0.211055	-9.788272	0.179047	-0.002541	-0.001926	0.000329
01142	12414517	0.211748	-9.766281	0.184802	-0.003526	0.000764	-0.001477
01143	12414567	0.221347	-9.784659	0.184314	-0.003196	0.000542	-0.000777
01144	12414617	0.209580	-9.786538	0.189111	-0.002737	0.001297	0.000989
01145	12414667	0.206296	-9.776728	0.211914	-0.002735	0.000198	-0.000456
01146	12414717	0.220952	-9.791103	0.186142	-0.005261	-0.000110	-0.003278
01147	12414767	0.215344	-9.797525	0.182318	-0.005106	0.000925	-0.004036
01148	12414817	0.209569	-9.762333	0.187846	-0.005635	-0.000308	-0.002987
01149	12414867	0.233968	-9.801158	0.186974	-0.005441	0.000434	-0.004432
01150	12414917	0.211806	-9.770714	0.179494	-0.005452	0.000219	0.001211
01151	12414967	0.212019	-9.780744	0.183493	-0.006305	-0.000449	-0.003245
01152	12415017	0.213724	-9.763926	0.171100	-0.004014	0.000144	-0.000616
01153	12415067	0.211246	-9.791656	0.183390	-0.003432	0.001698	-0.003463
01154	12415117	0.221115	-9.775252	0.188998	-0.004727	0.001585	-0.000256
01155	12415167	0.210149	-9.796539	0.175961	-0.002481	0.005037	-0.004955
01156	12415217	0.223093	-9.780613	0.199589	-0.003190	0.002286	-0.002242
01157	12415267	0.201562	-9.792683	0.196109	-0.002103	0.001334	-0.001001
01158	12415317	0.220389	-9.785838	0.213434	-0.004357	-0.002217	-0.000693
01159	12415367	0.208696	-9.781851	0.192028	-0.002404	0.001144	0.001276
01160	12415417	0.231154	-9.778571	0.182027	-0.003817	-0.002913	0.002024
01161	12415467	0.204331	-9.792975	0.170853	-0.007031	0.002448	-0.001589
01162	12415517	0.217126	-9.777149	0.186219	-0.003123	0.001452	0.001150
01163	12415567	0.223897	-9.789894	0.187170	-0.002286	-0.000285	-0.005144
01164	12415617	0.223919	-9.774297	0.206698	-0.006201	0.001524	-0.002114
01165	12415667	0.222982	-9.787105	0.190260	-0.003102	-0.001522	-0.001880
01166	12415717	0.205890	-9.786908	0.178710	-0.005845	0.000176	-0.001988
01167	12415767	0.209162	-9.783804	0.179923	-0.007451	-0.000303	-0.000130
01168	12415817	0.217334	-9.786710	0.174960	-0.002117	-0.001274	-0.001273
01169	12415867	0.224225	-9.801909	0.166114	-0.001402	0.001414	-0.001614
01170	12415917	0.207736	-9.779688	0.173871	-0.002024	0.001951	-0.002825
01171	12415967	0.199257	-9.787288	0.167111	-0.002743	0.000231	-0.001261
01172	12416017	0.220253	-9.800614	0.186814	-0.005949	0.000499	-0.000964
01173	12416067	0.218429	-9.780028	0.172934	-0.007659	-0.000985	-0.000743
01174	12416117	0.221243	-9.792873	0.193581	-0.005740	0.001183	0.001635
01175	12416167	0.212726	-9.785886	0.195058	-0.005088	0.001734	-0.001728
01176	12416217	0.215291	-9.783720	0.195480	0.001736	0.002177	-0.003155
01177	12416267	0.205890	-9.769942	0.170901	-0.003290	0.000708	0.001147
01178	12416317	0.222084	-9.788280	0.187902	-0.008530	0.001321	-0.001883
01179	12416367	0.226242	-9.785930	0.193168	-0.002769	-0.000902	-0.001203
01180	12416417	0.212160	-9.772742	0.203967	-0.000982	-0.001443	0.002509
01181	12416467	0.229811	-9.812812	0.185588	-0.006058	0.001847	-0.003523
01182	12416517	0.215290	-9.799561	0.191684	-0.003782	0.000726	-0.002313
01183	12416567	0.201478	-9.777594	0.217708	-0.003733	-0.000657	-0.000493
01184	12416617	0.209474	-9.789134	0.172269	-0.006770	0.001293	0.000391
01185	12416667	0.229159	-9.781199	0.181288	-0.005376	0.002763	-0.002073
01186	12416717	0.224216	-9.793798	0.194610	-0.001428	0.000352	-0.000399
01187	12416767	0.231539	-9.795745	0.172680	-0.005510	0.004056	-0.001075
01188	12416817	0.218845	-9.781208	0.157902	-0.002627	-0.000449	-0.003155
01189	12416867	0.197985	-9.761421	0.196347	-0.002669	0.000303	0.001335
01190	12416917	0.208491	-9.785303	0.168925	-0.006898	0.001616	0.001707
01191	12416967	0.207361	-9.780890	0.175225	-0.004873	0.001464	0.004520
01192	12417017	0.237336	-9.788939	0.182273	-0.003414	0.003348	-0.002526
01193	12417067	0.219505	-9.788523	0.171543	-0.005069	0.000288	0.000732
01194	12417117	0.207827	-9.792835	0.180001	-0.004494	0.002138	-0.000095
01195	12417167	0.210650	-9.776003	0.167230	-0.006858	0.000796	-0.004004
01196	12417217	0.206749	-9.781482	0.181246	-0.002539	0.000975	-0.001449
01197	12417267	0.215667	-9.777203	0.188259	0.003296	0.002662	-0.000367
01198	12417317	0.221799	-9.803959	0.189681	-0.006658	0.000706	-0.002788
01199	12417367	0.221725	-9.785722	0.207105	-0.001659	-0.000726	-0.003189
01200	12417417	0.231637	-9.792006	0.191713	0.000194	0.000278	-0.003803
01201	12417467	0.223008	-9.790700	0.177009	-0.005367	0.000414	0.001152
01202	12417517	0.202903	-9.789315	0.163211	-0.006619	0.000518	-0.001055
01203	12417567	0.223767	-9.784087	0.179222	-0.002702	0.002031	-0.003435
01204	12417617	0.216387	-9.778535	0.167074	-0.000993	0.002513	-0.002537
01205	12417667	0.214682	-9.794086	0.190030	-0.005081	-0.000551	-0.000042
01206	12417717	0.218860	-9.794247	0.172732	-0.003929	0.004567	-0.000340
01207	12417767	0.229809	-9.794250	0.181518	-0.006568	0.003064	-0.002615
01208	12417817	0.230886	-9.808539	0.171031	-0.003648	-0.000027	-0.007796
01209	12417867	0.205282	-9.773355	0.191662	-0.007002	0.000244	-0.005094
01210	12417917	0.224564	-9.772842	0.173490	-0.003657	0.003985	-0.002459
01211	12417967	0.231201	-9.791747	0.189901	-0.006545	-0.000071	-0.005293
01212	12418017	0.206104	-9.788112	0.180302	-0.003566	0.002187	-0.000960
01213	12418067	0.219573	-9.781433	0.188498	-0.006228	-0.001736	0.000211
01214	12418117	0.201258	-9.780153	0.183366	-0.004679	0.002804	-0.003360
01215	12418167	0.227740	-9.789962	0.179403	-0.004008	-0.001013	0.001748
01216	12418217	0.211279	-9.779123	0.185712	-0.005176	0.001310	-0.002981
01217	12418267	0.204492	-9.778639	0.195664	-0.002400	0.001553	-0.002407
01218	12418317	0.210542	-9.781571	0.190574	-0.003548	0.001536	-0.002952
01219	12418367	0.213782	-9.785698	0.183384	-0.003410	0.001051	-0.004333
01220	12418417	0.221520	-9.792989	0.170611	-0.003869	0.000437	-0.002126
01221	12418467	0.207831	-9.784629	0.186919	-0.006348	0.000466	0.003588
01222	12418517	0.213673	-9.783092	0.183814	-0.003328	-0.000428	-0.002769
01223	12418567	0.213721	-9.790152	0.180181	-0.005743	-0.000917	-0.000843
01224	12418617	0.217965	-9.783444	0.179503	-0.003742	0.002567	-0.001534
01225	12418667	0.206893	-9.784182	0.188065	-0.006813	-0.000125	0.002529
01226	12418717	0.199773	-9.772871	0.186985	-0.003709	-0.001863	-0.005563
01227	12418767	0.229581	-9.803733	0.196625	-0.005211	-0.000720	-0.002897
01228	12418817	0.222608	-9.791887	0.176544	-0.004616	0.002101	-0.000799
01229	12418867	0.207585	-9.784106	0.183163	-0.001636	-0.002694	-0.004160
01230	12418917	0.225829	-9.798726	0.192318	-0.005715	-0.001524	0.003348
01231	12418967	0.216112	-9.794259	0.187174	-0.003563	0.000154	0.001593
01232	12419017	0.207121	-9.782241	0.200344	-0.005160	-0.001202	-0.002386
01233	12419067	0.229442	-9.799323	0.172241	-0.004750	-0.001068	-0.002356
01234	12419117	0.226738	-9.805781	0.203820	-0.007133	0.001539	-0.001884
01235	12419167	0.222246	-9.781447	0.176506	-0.006352	0.001202	-0.000093
01236	12419217	0.214449	-9.777763	0.192919	-0.002493	0.003821	-0.000022
01237	12419267	0.221469	-9.783603	0.192403	-0.003694	-0.001980	-0.001014
01238	12419317	0.217866	-9.790323	0.179010	-0.003944	0.002983	-0.000411
01239	12419367	0.221513	-9.777806	0.170278	-0.004970	0.002165	0.001415
01240	12419417	0.220075	-9.786427	0.189802	-0.003530	0.005287	-0.000114
01241	12419467	0.199597	-9.779030	0.185453	-0.006085	0.002751	-0.003222
01242	12419517	0.216924	-9.766996	0.173498	-0.004794	-0.000684	-0.003314
01243	12419567	0.227829	-9.795531	0.186412	-0.003708	-0.002660	-0.000570
01244	12419617	0.219320	-9.794241	0.203896	-0.005187	0.001932	-0.000443
01245	12419667	0.224930	-9.797930	0.170275	-0.004733	0.002480	-0.002684
01246	12419717	0.211973	-9.783425	0.188908	-0.002071	-0.000633	-0.001013
01247	12419767	0.219645	-9.789979	0.157930	-0.004755	0.001257	-0.002024
01248	12419817	0.221134	-9.791650	0.190927	-0.005093	0.001831	-0.002656
01249	12419867	0.223117	-9.778121	0.191913	-0.002875	0.001384	-0.003208
01250	12419917	0.220689	-9.777344	0.186153	-0.003228	-0.000295	-0.000487
01251	12419967	0.237215	-9.788799	0.188307	-0.002320	0.000339	0.002076
01252	12420017	0.238493	-9.804489	0.175483	-0.005104	-0.001843	0.000788
01253	12420067	0.214200	-9.770447	0.163873	-0.004989	-0.000720	-0.003979
01254	12420117	0.216096	-9.777793	0.196016	-0.004574	0.002845	0.000016
01255	12420167	0.223767	-9.793710	0.172639	-0.007537	0.000975	-0.004825
01256	12420217	0.220209	-9.787261	0.182392	-0.002658	0.001743	-0.002500
01257	12420267	0.209361	-9.780047	0.182591	-0.003247	0.001024	-0.003040
01258	12420317	0.204241	-9.787163	0.178671	-0.001222	-0.002463	-0.002937
01259	12420367	0.213399	-9.778332	0.166999	-0.004476	0.002948	0.001007
01260	12420417	0.227451	-9.794340	0.170352	-0.003897	0.000399	-0.001187
01261	12420467	0.228505	-9.795706	0.198477	0.000309	0.001056	-0.000715
01262	12420517	0.222896	-9.792420	0.165363	-0.002936	0.001521	0.000031
01263	12420567	0.213028	-9.794881	0.178778	-0.004572	0.003850	0.001238
01264	12420617	0.213857	-9.788459	0.178018	-0.005665	-0.000343	-0.002434
01265	12420667	0.227521	-9.788221	0.188724	-0.005972	0.002463	-0.001684
01266	12420717	0.228147	-9.788411	0.187183	-0.001941	0.002702	0.001927
01267	12420767	0.211411	-9.777786	0.191608	-0.007556	0.000952	-0.001043
01268	12420817	0.217766	-9.791859	0.186692	-0.003645	0.000859	0.000354
01269	12420867	0.220524	-9.802741	0.187044	-0.005601	0.003020	0.001139
01270	12420917	0.217100	-9.797292	0.168970	-0.002320	0.004201	-0.003061
01271	12420967	0.213055	-9.798830	0.188628	-0.004991	-0.001258	0.000380
01272	12421017	0.209668	-9.766547	0.184529	-0.003995	0.001556	-0.001659
01273	12421067	0.213803	-9.769344	0.169115	-0.005049	0.001571	-0.002366
01274	12421117	0.202110	-9.759556	0.187182	-0.005166	0.002448	0.001649
01275	12421167	0.224293	-9.783317	0.160512	-0.003381	0.000215	-0.001509
01276	12421217	0.221994	-9.781245	0.178719	-0.004288	0.003815	-0.001454
01277	12421267	0.224722	-9.780593	0.168876	-0.005728	-0.000507	-0.002754
01278	12421317	0.212026	-9.780104	0.204302	-0.001948	-0.002435	-0.000244
01279	12421367	0.217941	-9.792908	0.177582	-0.003513	0.000143	-0.003786
01280	12421417	0.228164	-9.795570	0.189297	-0.002231	0.002234	-0.003872
01281	12421467	0.236732	-9.785275	0.190153	-0.004318	0.000753	-0.000479
01282	12421517	0.207671	-9.773525	0.174209	-0.005033	-0.000039	-0.000319
01283	12421567	0.228849	-9.808990	0.167425	-0.002868	0.002322	-0.001115
01284	12421617	0.233516	-9.797547	0.168114	-0.003609	0.002567	-0.001175
01285	12421667	0.209448	-9.779283	0.164239	-0.002050	0.001792	-0.001056
01286	12421717	0.202897	-9.784985	0.190290	-0.004967	-0.001100	-0.001065
01287	12421767	0.216515	-9.797495	0.181825	-0.005725	-0.002507	-0.001935
01288	12421817	0.218970	-9.790572	0.180949	-0.002024	-0.001208	-0.000692
01289	12421867	0.231058	-9.785774	0.187266	-0.006396	0.000714	-0.000058
01290	12421917	0.222137	-9.796406	0.176839	-0.004271	0.000205	0.000384
01291	12421967	0.197050	-9.777374	0.168756	-0.005385	-0.000013	-0.001215
01292	12422017	0.216037	-9.791857	0.169442	-0.003210	0.000929	-0.002594
01293	12422067	0.214024	-9.771958	0.170118	-0.004228	0.002080	0.002060
01294	12422117	0.238398	-9.798692	0.184536	0.001338	0.004946	-0.001629
01295	12422167	0.225178	-9.796106	0.175666	-0.003853	0.007138	-0.004710
01296	12422217	0.203634	-9.782619	0.191090	-0.002291	-0.000897	-0.002961
01297	12422267	0.223832	-9.799018	0.194005	-0.007480	0.000301	-0.003387
01298	12422317	0.201730	-9.783454	0.197786	-0.003973	0.002882	-0.003512
01299	12422367	0.221219	-9.791443	0.178034	-0.003148	0.000059	-0.000806
01300	12422417	0.216712	-9.778842	0.187669	-0.002836	-0.002040	-0.004213
01301	12422467	0.229346	-9.783938	0.190065	0.000550	0.002545	-0.001349
01302	12422517	0.206384	-9.770278	0.178080	-0.003745	-0.000503	-0.003050
01303	12422567	0.215168	-9.790388	0.165906	0.000585	0.001648	0.002304
01304	12422617	0.204448	-9.761703	0.173680	0.000006	0.000402	-0.001741
01305	12422667	0.220380	-9.796212	0.178497	-0.003125	0.003284	-0.003769
01306	12422717	0.222561	-9.805923	0.210179	-0.002236	-0.000534	-0.000234
01307	12422767	0.225731	-9.817050	0.180141	-0.004353	0.002785	-0.000468
01308	12422817	0.204447	-9.787812	0.175229	-0.003037	0.002775	0.000685
01309	12422867	0.222745	-9.807244	0.188491	-0.009003	0.000148	-0.000344
01310	12422917	0.221043	-9.787644	0.192677	-0.002821	-0.002230	-0.001203
01311	12422967	0.210824	-9.766908	0.178349	-0.000873	0.004102	-0.000884
01312	12423017	0.219251	-9.760314	0.188441	0.000601	0.002100	0.000667
01313	12423067	0.225679	-9.742232	0.189756	-0.002158	0.000436	0.001757
01314	12423117	0.212114	-9.765978	0.180156	-0.004489	0.003032	-0.002708
01315	12423167	0.198503	-9.752866	0.180552	-0.001284	0.002930	-0.001852
01316	12423217	0.216570	-9.783055	0.199397	-0.004022	0.001602	0.001542
01317	12423267	0.238189	-9.825402	0.193594	-0.001816	0.001306	-0.001862
01318	12423317	0.228454	-9.824883	0.183113	-0.002909	0.001581	0.000256
01319	12423367	0.233258	-9.826467	0.181790	-0.004338	0.002396	0.000073
01320	12423417	0.226615	-9.808628	0.188936	-0.006990	-0.000950	-0.002213
01321	12423467	0.217096	-9.799352	0.163629	-0.004718	0.000065	-0.001444
01322	12423517	0.222569	-9.765497	0.188252	-0.005370	-0.000665	-0.004074
01323	12423567	0.222006	-9.743630	0.185180	-0.004113	0.002301	-0.001977
01324	12423617	0.218550	-9.759319	0.184719	-0.004918	-0.001459	-0.000072
01325	12423667	0.221516	-9.734125	0.199032	-0.005494	0.001471	-0.001400
01326	12423717	0.222044	-9.787237	0.182649	-0.001725	0.004797	-0.001071
01327	12423767	0.219628	-9.811198	0.195893	-0.008154	0.000717	-0.000437
01328	12423817	0.219420	-9.803035	0.189076	-0.002971	-0.001848	-0.003668
01329	12423867	0.222551	-9.830699	0.186224	-0.003224	-0.002845	-0.001332
01330	12423917	0.213397	-9.845003	0.183333	-0.004851	-0.000478	0.002371
01331	12423967	0.232907	-9.817004	0.182989	-0.004514	0.001645	-0.001307
01332	12424017	0.227211	-9.781258	0.183414	-0.006305	0.004908	-0.001860
01333	12424067	0.209506	-9.765862	0.170595	-0.005737	-0.000150	-0.002819
01334	12424117	0.206339	-9.740822	0.190553	-0.003717	0.002412	0.002188
01335	12424167	0.216681	-9.762212	0.186087	-0.008374	-0.001647	-0.001250
01336	12424217	0.210776	-9.760692	0.190331	-0.003526	0.001825	-0.002814
01337	12424267	0.218000	-9.773480	0.163677	-0.003740	-0.001571	-0.002127
01338	12424317	0.220310	-9.786583	0.200086	-0.003831	0.000366	-0.003079
01339	12424367	0.224723	-9.813696	0.177774	-0.004046	0.002274	0.000267
01340	12424417	0.221109	-9.824213	0.179002	-0.002582	-0.001574	-0.000273
01341	12424467	0.218855	-9.835021	0.186409	-0.004648	0.002906	-0.001748
01342	12424517	0.221420	-9.833769	0.183926	-0.007161	-0.000559	-0.000832
01343	12424567	0.214603	-9.786443	0.186651	-0.005376	0.001800	0.000555
01344	12424617	0.234150	-9.768423	0.187504	-0.005490	0.000212	-0.000639
01345	12424667	0.206564	-9.730995	0.184613	-0.003790	0.000338	0.000068
01346	12424717	0.194691	-9.737594	0.171419	-0.004668	0.002380	-0.003606
01347	12424767	0.222505	-9.731032	0.168629	-0.003592	0.004481	0.001690
01348	12424817	0.193401	-9.769074	0.197140	-0.002997	0.000188	-0.001186
01349	12424867	0.206281	-9.772627	0.175692	-0.002966	0.002089	-0.005347
01350	12424917	0.218815	-9.815449	0.193775	-0.007392	0.001593	-0.003479
01351	12424967	0.231531	-9.850224	0.197916	-0.001837	0.002186	0.000001
01352	12425017	0.213488	-9.831903	0.180429	-0.004862	0.001939	0.001965
01353	12425067	0.218005	-9.824522	0.181864	-0.004137	0.003470	0.002228
01354	12425117	0.205240	-9.785902	0.174485	-0.006270	0.002484	-0.003347
01355	12425167	0.206646	-9.754314	0.173444	-0.007301	0.002151	-0.000525
01356	12425217	0.215500	-9.749257	0.175285	-0.008780	0.000021	-0.002679
01357	12425267	0.204485	-9.726154	0.176241	-0.000764	-0.000580	-0.002190
01358	12425317	0.214964	-9.738686	0.181962	-0.000929	0.000975	0.001757
01359	12425367	0.211625	-9.758601	0.194118	-0.004024	0.002591	-0.001879
01360	12425417	0.235810	-9.802759	0.184880	-0.005050	-0.002490	-0.000274
01361	12425467	0.219319	-9.813107	0.211574	-0.003480	0.000506	-0.000643
01362	12425517	0.236615	-9.849015	0.185101	-0.005280	0.001866	0.000617
01363	12425567	0.240885	-9.836226	0.174851	-0.003448	-0.001788	-0.002098
01364	12425617	0.227454	-9.828694	0.198277	-0.007846	0.001074	-0.000662
01365	12425667	0.220367	-9.809023	0.178547	-0.002447	0.002535	0.002410
01366	12425717	0.198735	-9.762623	0.167600	-0.002665	0.001036	-0.000030
01367	12425767	0.195032	-9.723947	0.163866	-0.001270	0.003379	-0.003899
01368	12425817	0.183438	-9.717545	0.170381	-0.001434	0.000507	-0.001349
01369	12425867	0.205778	-9.734561	0.168496	-0.002742	-0.001610	-0.000909
01370	12425917	0.225149	-9.766109	0.183756	-0.004459	0.002035	-0.002972
01371	12425967	0.206462	-9.788849	0.182110	-0.003713	0.002462	-0.005246
01372	12426017	0.224629	-9.826136	0.183741	-0.003489	0.001673	0.000256
01373	12426067	0.248612	-9.849769	0.197855	-0.001904	0.001346	0.002172
01374	12426117	0.216836	-9.834326	0.201589	-0.001646	-0.002047	-0.001368
01375	12426167	0.223018	-9.823998	0.182074	-0.004429	-0.000030	-0.001538
01376	12426217	0.225807	-9.803643	0.187853	-0.003138	0.001998	0.000966
01377	12426267	0.215547	-9.775261	0.169803	-0.007185	0.002377	-0.001421
01378	12426317	0.219167	-9.742827	0.176785	-0.004978	0.000217	-0.002533
01379	12426367	0.194190	-9.717943	0.173829	-0.002670	0.001997	-0.003771
01380	12426417	0.204977	-9.749566	0.171599	-0.004322	0.000615	-0.001601
01381	12426467	0.205292	-9.749183	0.193302	-0.007350	0.002664	-0.001646
01382	12426517	0.209868	-9.798391	0.173330	-0.002694	0.003006	0.000425
01383	12426567	0.207085	-9.810889	0.196708	-0.006940	-0.000758	-0.004806
01384	12426617	0.236819	-9.844734	0.184905	-0.004414	0.000516	-0.001634
01385	12426667	0.223054	-9.834355	0.192613	-0.003900	0.001432	-0.001437
01386	12426717	0.246725	-9.827374	0.189658	-0.004108	-0.004054	0.001124
01387	12426767	0.234284	-9.797437	0.192308	-0.005710	0.000110	-0.000482
01388	12426817	0.208145	-9.780114	0.185961	-0.004599	0.000226	-0.002943
01389	12426867	0.211301	-9.743022	0.168259	-0.004070	0.000209	0.001666
01390	12426917	0.198176	-9.742652	0.179778	-0.003883	0.000273	0.000449
01391	12426967	0.229537	-9.739655	0.194951	-0.006080	0.002778	-0.002289
01392	12427017	0.218941	-9.761325	0.176323	-0.002746	-0.002906	-0.002780
01393	12427067	0.228735	-9.791486	0.186646	-0.002645	-0.001870	-0.001360
01394	12427117	0.216954	-9.829928	0.177695	-0.000563	0.000038	-0.003058
01395	12427167	0.217671	-9.824716	0.194023	-0.007001	0.001507	-0.002102
01396	12427217	0.218886	-9.838161	0.189553	-0.002807	0.002257	-0.003169
01397	12427267	0.237163	-9.835081	0.189201	-0.004394	-0.001228	-0.002225
01398	12427317	0.237378	-9.794985	0.189989	-0.003616	0.003794	-0.001013
01399	12427367	0.213820	-9.761164	0.192653	-0.005434	-0.002629	-0.001968
01400	12427417	0.194494	-9.731193	0.187558	-0.001824	0.001593	-0.002789
01401	12427467	0.214478	-9.740378	0.167988	-0.003452	-0.001632	-0.002704
01402	12427517	0.208418	-9.760262	0.176183	-0.003149	0.000191	-0.000353
01403	12427567	0.222238	-9.773158	0.177362	-0.000751	0.003000	-0.004420
01404	12427617	0.202354	-9.777230	0.179297	-0.003798	-0.000599	-0.000224
01405	12427667	0.225672	-9.823841	0.205334	-0.003996	0.001726	0.000484
01406	12427717	0.226167	-9.834568	0.193554	-0.006972	0.001472	-0.003255
01407	12427767	0.219638	-9.830409	0.195802	-0.002154	-0.001283	-0.002545
01408	12427817	0.226813	-9.820429	0.185005	-0.003501	-0.000180	-0.003979
01409	12427867	0.223621	-9.785985	0.195153	0.002059	0.000410	-0.000563
01410	12427917	0.217838	-9.795159	0.185075	-0.008075	0.002200	-0.000976
01411	12427967	0.210939	-9.778423	0.170903	-0.003801	0.000102	-0.004648
01412	12428017	0.204742	-9.737340	0.178794	-0.003070	0.000904	0.000326
01413	12428067	0.217587	-9.752548	0.175212	-0.003467	0.002151	-0.000793
01414	12428117	0.230373	-9.757240	0.166367	-0.006592	0.002840	-0.000209
01415	12428167	0.208373	-9.770405	0.171856	-0.003337	0.001858	-0.002716
01416	12428217	0.236614	-9.807829	0.190820	-0.006161	0.000936	-0.004479
01417	12428267	0.221381	-9.816447	0.198932	-0.002076	0.003627	-0.001784
01418	12428317	0.223399	-9.837902	0.191993	-0.002212	0.000554	-0.004172
01419	12428367	0.230994	-9.815386	0.184482	-0.004496	-0.000067	-0.003625
01420	12428417	0.217892	-9.807764	0.187643	-0.004849	0.001551	0.001515
01421	12428467	0.220618	-9.788665	0.181887	-0.002521	0.000525	0.000954
01422	12428517	0.211863	-9.754379	0.181981	-0.000685	0.005397	0.000630
01423	12428567	0.222610	-9.747717	0.173631	-0.007190	0.001504	-0.001521
01424	12428617	0.225857	-9.763794	0.173236	-0.004163	-0.002155	-0.000462
01425	12428667	0.207420	-9.759973	0.172105	-0.003973	0.000180	0.002529
01426	12428717	0.203644	-9.776214	0.175631	-0.007909	0.002006	-0.002641
01427	12428767	0.216290	-9.791543	0.180403	-0.005464	0.000402	-0.003169
01428	12428817	0.219969	-9.808331	0.194840	-0.003875	-0.000539	-0.004270
01429	12428867	0.235773	-9.813867	0.181994	-0.004113	-0.000028	-0.003336
01430	12428917	0.212910	-9.818545	0.174443	-0.004203	0.003339	0.001362
01431	12428967	0.205923	-9.802950	0.173302	-0.003341	0.001025	-0.001086
01432	12429017	0.211748	-9.782397	0.183060	-0.005082	0.000577	-0.001243
01433	12429067	0.223438	-9.759893	0.164116	-0.003041	-0.001226	0.000662
01434	12429117	0.200242	-9.748984	0.161058	-0.007024	0.002579	0.000051
01435	12429167	0.218289	-9.750271	0.182124	-0.003332	0.003927	-0.002228
01436	12429217	0.214724	-9.751121	0.188123	-0.002737	0.001194	-0.002079
01437	12429267	0.221120	-9.775687	0.186829	-0.004666	0.000682	-0.000030
01438	12429317	0.220041	-9.791427	0.175610	-0.004654	0.003132	-0.001138
01439	12429367	0.208911	-9.800982	0.185947	-0.004441	0.002387	-0.002906
01440	12429417	0.223106	-9.808406	0.171315	-0.003477	0.002378	-0.000473
01441	12429467	0.237952	-9.823448	0.189965	-0.001828	-0.000176	0.000051
01442	12429517	0.241087	-9.810098	0.188179	-0.004639	0.001776	-0.000502
01443	12429567	0.222160	-9.778363	0.175903	-0.002737	-0.002771	0.000784
01444	12429617	0.212680	-9.770647	0.191445	-0.005078	-0.000455	0.000671
01445	12429667	0.213910	-9.762902	0.182362	-0.003585	0.001666	-0.000891
01446	12429717	0.220202	-9.756419	0.182596	-0.002681	0.002880	0.001869
01447	12429767	0.218115	-9.778263	0.181687	-0.001343	-0.002430	-0.000632
01448	12429817	0.214256	-9.773014	0.192378	-0.004748	0.001998	-0.003030
01449	12429867	0.215621	-9.803931	0.183430	-0.000533	0.003459	-0.001083
01450	12429917	0.237048	-9.806354	0.188270	-0.004548	-0.000363	-0.002407
01451	12429967	0.231815	-9.817326	0.187978	-0.007120	0.001568	0.001685
01452	12430017	0.216925	-9.813036	0.189523	-0.004619	0.004088	-0.003117
01453	12430067	0.194103	-9.798068	0.185269	-0.006502	0.005189	-0.001530
01454	12430117	0.225893	-9.782443	0.167135	-0.004914	-0.000657	-0.000228
01455	12430167	0.235012	-9.790623	0.166214	-0.003606	0.000467	-0.000353
01456	12430217	0.214232	-9.766654	0.179670	-0.005692	0.001913	0.000945
01457	12430267	0.201400	-9.779434	0.182585	-0.006179	0.000165	0.002350
01458	12430317	0.220886	-9.789734	0.190022	-0.002789	0.002866	-0.002132
01459	12430367	0.211358	-9.770489	0.180029	-0.002129	0.003526	0.000654
01460	12430417	0.215672	-9.805709	0.175201	-0.003596	-0.001153	-0.001124
01461	12430467	0.221844	-9.808628	0.200493	-0.004835	0.001098	0.003757
01462	12430517	0.231595	-9.797541	0.196990	-0.000780	0.005424	0.000019
01463	12430567	0.232811	-9.826116	0.173751	-0.001378	-0.000304	-0.000172
01464	12430617	0.231876	-9.807381	0.173668	-0.005501	0.004820	0.000317
01465	12430667	0.227680	-9.797790	0.178931	-0.004400	-0.001908	-0.000875
01466	12430717	0.213178	-9.781792	0.190912	-0.006984	-0.000051	-0.003102
01467	12430767	0.206839	-9.770150	0.185676	-0.006942	-0.000144	-0.000052
01468	12430817	0.216868	-9.749020	0.176554	-0.007244	-0.000829	-0.000414
01469	12430867	0.223490	-9.771453	0.190949	-0.004349	0.001740	-0.001016
01470	12430917	0.213530	-9.775042	0.184999	-0.005006	0.001343	-0.000784
01471	12430967	0.237570	-9.795420	0.156181	-0.001853	0.002524	-0.002680
01472	12431017	0.213702	-9.807490	0.181946	-0.002396	0.005879	0.001056
01473	12431067	0.219068	-9.807270	0.202705	-0.003085	0.001152	0.000199
01474	12431117	0.204195	-9.798327	0.179807	-0.003920	-0.001161	-0.003657
01475	12431167	0.220292	-9.798212	0.185119	-0.006975	-0.000339	-0.001342
01476	12431217	0.211500	-9.776090	0.174289	-0.000908	0.000833	-0.001600
01477	12431267	0.224104	-9.782834	0.175284	-0.004956	0.003929	0.001019
01478	12431317	0.198026	-9.786658	0.187173	-0.004882	0.002244	-0.002577
01479	12431367	0.231345	-9.763672	0.169113	-0.004040	0.002104	-0.000370
01480	12431417	0.209725	-9.778567	0.164364	-0.005282	0.001851	-0.001969
01481	12431467	0.220880	-9.775033	0.189955	-0.005750	0.002588	-0.000396
01482	12431517	0.213381	-9.779490	0.180471	-0.004158	-0.002486	-0.001804
01483	12431567	0.212121	-9.789391	0.175930	-0.002263	0.002419	-0.001368
01484	12431617	0.207284	-9.800749	0.185270	-0.005583	0.001098	-0.003833
01485	12431667	0.222250	-9.791081	0.200776	-0.003906	0.000846	-0.001469
01486	12431717	0.235416	-9.825343	0.187227	-0.006025	0.001804	-0.002709
01487	12431767	0.223337	-9.809581	0.185919	-0.004245	0.000091	-0.003813
01488	12431817	0.204136	-9.782183	0.178707	-0.007937	-0.000194	-0.000179
01489	12431867	0.228950	-9.800925	0.183252	-0.003993	-0.000873	-0.003945
01490	12431917	0.221004	-9.775895	0.169115	-0.003886	-0.001799	0.000570
01491	12431967	0.230180	-9.783371	0.169387	-0.003172	0.002890	-0.001587
01492	12432017	0.220652	-9.768621	0.189881	-0.000903	0.000929	-0.001314
01493	12432067	0.222270	-9.780452	0.173114	-0.007650	-0.000352	-0.001208
01494	12432117	0.234938	-9.803822	0.175779	-0.004762	0.001375	-0.002011
01495	12432167	0.241428	-9.803818	0.196722	-0.001053	0.002737	-0.000220
01496	12432217	0.195697	-9.790123	0.179330	-0.003767	0.003426	-0.003023
01497	12432267	0.210053	-9.785741	0.198992	-0.000972	0.003088	-0.002617
01498	12432317	0.221410	-9.789127	0.196959	-0.003177	-0.000477	-0.005673
01499	12432367	0.221074	-9.779653	0.182009	-0.007578	0.003550	-0.002597
01500	12432417	0.205182	-9.782713	0.167769	-0.005979	-0.000417	-0.000026
01501	12432467	0.222557	-9.792061	0.187876	-0.001442	0.002860	-0.001590
01502	12432517	0.208113	-9.778287	0.175242	-0.002921	-0.000571	-0.007085
01503	12432567	0.216150	-9.778763	0.182202	-0.001702	0.002244	0.001965
01504	12432617	0.216024	-9.790031	0.189636	-0.001158	0.003127	0.001739
01505	12432667	0.216449	-9.781066	0.162053	-0.002121	-0.000390	-0.004169
01506	12432717	0.218925	-9.782351	0.185944	-0.001926	0.000780	-0.003012
01507	12432767	0.214093	-9.799114	0.177668	-0.000650	0.000064	0.000471
01508	12432817	0.213694	-9.805964	0.190536	-0.004176	0.000227	-0.000381
01509	12432867	0.217932	-9.799990	0.206826	-0.002518	0.001816	0.003629
01510	12432917	0.218527	-9.795408	0.186660	-0.003597	-0.003023	-0.000079
01511	12432967	0.221982	-9.800044	0.182024	-0.006063	0.000095	-0.000891
01512	12433017	0.213444	-9.796406	0.170157	-0.003931	0.002653	-0.001235
01513	12433067	0.212293	-9.778520	0.178553	-0.004227	0.002608	-0.003921
01514	12433117	0.220059	-9.772660	0.158848	-0.004282	0.000779	0.001899
01515	12433167	0.204781	-9.764099	0.175702	-0.003544	-0.001001	-0.005130
01516	12433217	0.198221	-9.754152	0.155818	-0.004170	0.001065	-0.001270
01517	12433267	0.190216	-9.752085	0.184596	-0.005259	0.000846	-0.003640
01518	12433317	0.210640	-9.777672	0.199208	-0.002399	0.002643	-0.002744
01519	12433367	0.239376	-9.822754	0.192448	-0.000840	0.002768	-0.002973
01520	12433417	0.230226	-9.799740	0.184493	-0.004169	0.001165	0.000039
01521	12433467	0.218712	-9.805838	0.185943	-0.003713	0.002591	-0.002552
01522	12433517	0.207864	-9.808178	0.159611	-0.005529	-0.002571	0.000279
01523	12433567	0.227746	-9.792391	0.167052	-0.001782	0.000002	-0.005001
01524	12433617	0.198021	-9.770317	0.189055	-0.000101	0.000650	-0.003271
01525	12433667	0.207711	-9.778167	0.182842	-0.004623	0.001089	-0.003228
01526	12433717	0.212065	-9.775129	0.189081	-0.002648	0.001676	0.000037
01527	12433767	0.229145	-9.786566	0.190703	-0.003570	-0.000828	-0.001738
01528	12433817	0.225287	-9.791615	0.177041	-0.002494	0.004677	-0.002380
01529	12433867	0.232899	-9.790454	0.199838	-0.001497	-0.000370	0.000439
01530	12433917	0.238034	-9.799106	0.180587	-0.003327	-0.002670	-0.003542
01531	12433967	0.197750	-9.793387	0.192774	-0.003528	0.000012	-0.000831
01532	12434017	0.228436	-9.813731	0.197910	-0.003797	0.002562	0.000880
01533	12434067	0.218739	-9.813923	0.187416	-0.000232	0.002881	-0.001082
01534	12434117	0.220656	-9.791503	0.181136	-0.005530	0.000789	0.001006
01535	12434167	0.217598	-9.789486	0.185968	-0.002634	0.002897	-0.003251
01536	12434217	0.220338	-9.783228	0.182852	-0.002819	-0.001299	-0.000232
01537	12434267	0.196224	-9.751310	0.170165	-0.007429	0.001843	-0.003245
01538	12434317	0.234843	-9.777213	0.188698	-0.006571	0.001855	-0.004404
01539	12434367	0.216557	-9.767464	0.188124	-0.003497	-0.001150	-0.002377
01540	12434417	0.214122	-9.779840	0.188591	-0.006340	0.003061	-0.001451
01541	12434467	0.220474	-9.814669	0.191344	0.000449	0.001470	-0.001893
01542	12434517	0.218789	-9.797399	0.192665	-0.003044	0.002827	-0.001524
01543	12434567	0.224800	-9.818891	0.191210	-0.002441	0.004102	-0.001132
01544	12434617	0.200333	-9.794394	0.197982	-0.002932	0.001445	0.000362
01545	12434667	0.225643	-9.804656	0.192373	-0.005664	0.000618	-0.001917
01546	12434717	0.228728	-9.802279	0.178693	-0.003604	0.002170	-0.002711
01547	12434767	0.226704	-9.781799	0.187635	-0.002284	0.002199	-0.000086
01548	12434817	0.215972	-9.758457	0.173291	-0.002231	-0.000413	0.001343
01549	12434867	0.217263	-9.778541	0.183776	-0.005496	0.001197	-0.003961
01550	12434917	0.218267	-9.782469	0.177247	-0.007025	0.001109	-0.003251
01551	12434967	0.220265	-9.780083	0.178710	-0.005066	0.002182	0.000048
01552	12435017	0.214559	-9.799255	0.201770	-0.004362	-0.001431	-0.005194
01553	12435067	0.220633	-9.786495	0.195109	-0.004584	0.001262	0.002479
01554	12435117	0.199372	-9.806543	0.169761	-0.002752	-0.000720	-0.003657
01555	12435167	0.212460	-9.781260	0.171639	-0.002786	0.000900	0.000771
01556	12435217	0.222520	-9.783195	0.181960	-0.007071	0.001722	-0.001135
01557	12435267	0.222701	-9.779990	0.174656	-0.004298	-0.000031	0.000005
01558	12435317	0.211291	-9.771594	0.190308	-0.003204	-0.000079	0.000446
01559	12435367	0.221226	-9.783441	0.197267	-0.002463	0.001514	-0.002555
01560	12435417	0.237365	-9.776496	0.190461	-0.001467	0.003568	-0.001140
01561	12435467	0.209242	-9.777169	0.196054	-0.004372	0.001451	-0.001493
01562	12435517	0.220254	-9.786033	0.164070	-0.006278	0.002964	-0.001994
01563	12435567	0.221281	-9.805309	0.184633	-0.007707	0.002946	0.000349
01564	12435617	0.234822	-9.798818	0.189757	-0.001898	0.001945	-0.001312
01565	12435667	0.213671	-9.791728	0.190295	-0.003460	-0.000115	0.000450
01566	12435717	0.232637	-9.805490	0.205208	-0.005084	0.000430	-0.002303
01567	12435767	0.225978	-9.790640	0.175768	-0.006019	0.002838	-0.001998
01568	12435817	0.222047	-9.784096	0.179018	-0.002169	0.002323	-0.002233
01569	12435867	0.222741	-9.789096	0.180614	-0.004674	-0.001102	0.000479
01570	12435917	0.220423	-9.774874	0.194694	-0.008334	-0.000785	-0.001402
01571	12435967	0.207839	-9.786075	0.187675	-0.004538	0.001245	-0.004671
01572	12436017	0.209467	-9.785172	0.176872	-0.004287	0.004741	-0.002919
01573	12436067	0.229908	-9.786771	0.189538	-0.002453	-0.001042	-0.003919
01574	12436117	0.222050	-9.804554	0.182586	-0.002474	0.000832	-0.002242
01575	12436167	0.217508	-9.787823	0.186121	-0.005890	-0.000256	-0.001309
01576	12436217	0.220475	-9.779655	0.197135	-0.005909	0.000323	-0.002909
01577	12436267	0.218571	-9.782817	0.170007	-0.000065	0.002520	-0.003490
01578	12436317	0.209814	-9.787087	0.194087	-0.004020	0.001521	0.000271
01579	12436367	0.211495	-9.779738	0.180027	-0.004428	-0.001065	-0.000454
01580	12436417	0.216530	-9.774616	0.190252	-0.005151	0.000428	-0.005252
01581	12436467	0.215650	-9.782513	0.178464	-0.004882	-0.002019	-0.002985
01582	12436517	0.214833	-9.786373	0.182657	-0.002645	0.000483	-0.000130
01583	12436567	0.215823	-9.779666	0.178291	-0.004622	0.000021	-0.002107
01584	12436617	0.226532	-9.802052	0.177522	-0.005276	0.001595	-0.001683
01585	12436667	0.210676	-9.785837	0.174912	-0.006449	0.003381	-0.001156
01586	12436717	0.221019	-9.802321	0.190614	0.001718	0.000811	-0.002382
01587	12436767	0.245965	-9.797541	0.177884	-0.003920	0.000267	0.001378
01588	12436817	0.226847	-9.796181	0.182251	-0.006542	0.003614	0.001886
01589	12436867	0.237082	-9.791405	0.188214	-0.005266	0.000176	-0.001980
01590	12436917	0.234238	-9.785835	0.178185	-0.004360	0.000933	-0.002012
01591	12436967	0.222681	-9.773753	0.170071	-0.001810	0.001206	-0.002141
01592	12437017	0.213504	-9.785236	0.184761	-0.004736	0.005523	0.005194
01593	12437067	0.210297	-9.793977	0.163954	-0.003371	0.001244	0.001227
01594	12437117	0.220921	-9.778220	0.197007	-0.002363	0.000416	-0.003204
01595	12437167	0.215898	-9.787855	0.187101	-0.006436	0.001665	-0.002257
01596	12437217	0.212266	-9.783993	0.179540	-0.002873	0.003704	-0.001038
01597	12437267	0.219277	-9.780864	0.182844	-0.002301	0.002979	0.002546
01598	12437317	0.230087	-9.813543	0.187314	-0.003429	0.003151	0.002418
01599	12437367	0.213868	-9.790638	0.196818	-0.003237	0.002087	0.001069
01600	12437417	0.211751	-9.787910	0.187448	-0.002135	0.000652	0.000323
01601	12437467	0.207058	-9.765543	0.179098	-0.002810	-0.001623	-0.001963
01602	12437517	0.211768	-9.779974	0.179944	-0.004508	0.000545	-0.001502
01603	12437567	0.225532	-9.775253	0.176998	-0.004794	-0.000495	-0.001539
01604	12437617	0.206445	-9.776727	0.180696	-0.004241	0.000356	-0.000442
01605	12437667	0.223720	-9.793728	0.189953	-0.005966	0.001489	0.001519
01606	12437717	0.225722	-9.798038	0.193365	-0.002237	0.001519	-0.001117
01607	12437767	0.210172	-9.764692	0.172285	-0.004736	0.000634	-0.001946
01608	12437817	0.218695	-9.807708	0.184298	-0.002922	0.001061	0.000229
01609	12437867	0.229774	-9.796639	0.183003	-0.004040	0.001971	0.000299
01610	12437917	0.205640	-9.773262	0.186166	-0.005710	0.000200	-0.000792
01611	12437967	0.220493	-9.782143	0.189371	-0.002167	0.000524	0.001600
01612	12438017	0.219911	-9.790473	0.190979	-0.003958	0.001425	-0.001497
01613	12438067	0.227347	-9.798325	0.197944	-0.001436	0.001566	-0.000737
01614	12438117	0.238526	-9.781560	0.165624	-0.004996	0.000793	-0.000699
01615	12438167	0.210128	-9.765892	0.189190	-0.001438	0.001499	-0.001917
01616	12438217	0.200718	-9.787873	0.175447	-0.004353	0.001740	-0.002550
01617	12438267	0.210007	-9.786468	0.184559	-0.004354	0.000374	-0.006211
01618	12438317	0.204170	-9.788109	0.178313	-0.004201	0.002169	0.000429
01619	12438367	0.213816	-9.796955	0.190742	-0.006818	0.001660	-0.003087
01620	12438417	0.199677	-9.793014	0.185156	-0.000693	-0.000580	0.000539
01621	12438467	0.215590	-9.779618	0.190987	-0.004293	-0.001527	-0.005100
01622	12438517	0.223731	-9.784559	0.194767	-0.004280	0.000718	0.002956
01623	12438567	0.214586	-9.777275	0.176374	-0.004073	-0.000093	-0.001246
01624	12438617	0.210326	-9.770003	0.194155	-0.002008	-0.001571	0.000149
01625	12438667	0.233977	-9.787095	0.182784	-0.003599	0.001106	-0.001633
01626	12438717	0.195211	-9.778693	0.191151	0.000441	0.001855	-0.001792
01627	12438767	0.219623	-9.767687	0.174441	-0.003938	0.000481	-0.004994
01628	12438817	0.210618	-9.791069	0.190915	-0.007658	0.000136	-0.000722
01629	12438867	0.216753	-9.807068	0.187686	-0.002123	-0.000028	-0.000868
01630	12438917	0.219920	-9.788940	0.183253	-0.007762	0.000325	-0.000977
01631	12438967	0.214169	-9.783995	0.180988	-0.001706	-0.000087	-0.001127
01632	12439017	0.225206	-9.785759	0.166338	-0.000841	-0.000071	-0.000809
01633	12439067	0.207877	-9.786354	0.190795	-0.004862	0.000931	0.001258
01634	12439117	0.217456	-9.782647	0.173450	-0.004440	0.002839	0.001623
01635	12439167	0.218879	-9.773252	0.196523	-0.002573	-0.000679	0.001949
01636	12439217	0.233904	-9.794216	0.198849	-0.003058	-0.001851	0.000341
01637	12439267	0.223923	-9.781046	0.182362	-0.002360	0.000124	-0.003046
01638	12439317	0.219585	-9.778164	0.176289	-0.005109	0.006765	0.001004
01639	12439367	0.231071	-9.798130	0.204050	-0.005444	-0.000054	-0.000477
01640	12439417	0.220927	-9.785488	0.175845	-0.006083	0.002802	-0.003053
01641	12439467	0.218162	-9.797359	0.189790	-0.003949	-0.000195	-0.004135
01642	12439517	0.239079	-9.786287	0.196371	-0.006204	-0.001357	-0.000549
01643	12439567	0.221591	-9.775100	0.179688	-0.004069	-0.000024	0.001126
01644	12439617	0.210594	-9.786629	0.179996	-0.003514	-0.003475	-0.000081
01645	12439667	0.238527	-9.795450	0.189941	-0.003163	0.000537	0.000258
01646	12439717	0.213679	-9.764572	0.183084	-0.004211	0.001256	-0.000793
01647	12439767	0.219318	-9.785824	0.165142	-0.003637	0.002329	-0.002998
01648	12439817	0.232818	-9.802357	0.171239	-0.004195	0.001738	-0.001947
01649	12439867	0.233460	-9.780603	0.176548	-0.003593	0.001974	-0.001978
01650	12439917	0.227290	-9.790705	0.180935	-0.001275	-0.000595	0.000629
01651	12439967	0.235854	-9.791733	0.192830	-0.001681	0.003298	-0.001238
01652	12440017	0.226455	-9.785048	0.198182	-0.001266	0.000243	-0.001413
01653	12440067	0.218582	-9.770511	0.171837	-0.001431	0.000297	-0.001699
01654	12440117	0.220679	-9.793302	0.174621	-0.005367	-0.002537	0.001113
01655	12440167	0.209382	-9.780933	0.179064	-0.003615	-0.002511	-0.001103
01656	12440217	0.206574	-9.795576	0.203010	-0.003535	0.001072	-0.002334
01657	12440267	0.210321	-9.777318	0.175843	-0.006918	-0.000154	-0.002234
01658	12440317	0.217662	-9.771090	0.193654	-0.004257	0.004359	0.002622
01659	12440367	0.224159	-9.793805	0.194998	-0.004483	0.001931	0.001198
01660	12440417	0.238513	-9.800818	0.199530	-0.004248	0.000483	0.000162
01661	12440467	0.219852	-9.776474	0.174924	-0.004101	-0.000426	-0.001954
01662	12440517	0.216026	-9.775200	0.181386	-0.003603	0.000130	-0.003685
01663	12440567	0.216767	-9.806929	0.193758	-0.007330	0.002813	-0.002119
01664	12440617	0.214606	-9.773930	0.159538	-0.006587	0.002795	0.000537
01665	12440667	0.218153	-9.787740	0.196693	-0.005538	0.002877	-0.000013
