PacketCounter	SampleTimeFine	Acc_X	Acc_Y	Acc_Z	Gyr_X	Gyr_Y	Gyr_Z
00001	12591667	-0.306543	9.834712	0.105204	-0.005054	0.004282	-0.004187
00002	12591717	-0.309857	9.832582	0.086745	-0.007348	0.001116	0.000226
00003	12591767	-0.292418	9.811091	0.109797	-0.002921	-0.001491	-0.001533
00004	12591817	-0.302383	9.818945	0.100133	-0.006384	-0.001092	0.000400
00005	12591867	-0.320172	9.812160	0.095179	-0.004277	0.004110	-0.000086
00006	12591917	-0.325485	9.821853	0.123945	-0.004109	0.000622	-0.002286
00007	12591967	-0.313128	9.830205	0.115410	-0.002270	0.000106	-0.001716
00008	12592017	-0.319431	9.806508	0.108042	-0.003272	0.001706	-0.000069
00009	12592067	-0.309259	9.809603	0.100391	-0.004396	0.000548	-0.002766
00010	12592117	-0.321793	9.809124	0.121266	-0.004160	0.003301	-0.002050
00011	12592167	-0.324053	9.838405	0.097741	-0.001548	0.001834	0.000053
00012	12592217	-0.317860	9.838355	0.090388	0.002101	0.002696	-0.001043
00013	12592267	-0.309109	9.833776	0.102067	-0.003580	0.002111	-0.003594
00014	12592317	-0.323671	9.827057	0.094740	0.002766	-0.001320	-0.001452
00015	12592367	-0.329561	9.835308	0.109069	-0.000773	0.001686	0.002041
00016	12592417	-0.307500	9.817010	0.098212	-0.004706	-0.000944	-0.004373
00017	12592467	-0.297996	9.803048	0.088063	-0.001990	0.001971	-0.006840
00018	12592517	-0.327596	9.807323	0.110604	-0.007725	-0.000411	-0.001831
00019	12592567	-0.322316	9.802208	0.092053	-0.003079	0.001214	-0.004496
00020	12592617	-0.322539	9.804944	0.099509	-0.005557	0.002918	-0.003196
00021	12592667	-0.299457	9.814217	0.085968	-0.004173	0.000716	-0.001838
00022	12592717	-0.292986	9.821696	0.098849	-0.002958	0.000543	-0.002965
00023	12592767	-0.308502	9.818875	0.084043	-0.003397	0.000671	0.001203
00024	12592817	-0.301139	9.834352	0.086391	-0.002582	0.002104	-0.000588
00025	12592867	-0.298403	9.836123	0.081087	-0.001854	-0.000560	0.001261
00026	12592917	-0.306091	9.818455	0.098194	-0.003111	0.001282	-0.003760
00027	12592967	-0.296324	9.824001	0.100307	-0.003798	-0.001148	-0.001979
00028	12593017	-0.281196	9.798033	0.088268	-0.002831	0.003672	-0.002889
00029	12593067	-0.303558	9.836958	0.099874	-0.004102	0.002755	0.000834
00030	12593117	-0.284746	9.816091	0.115166	-0.005645	0.000021	0.002998
00031	12593167	-0.288150	9.805292	0.089309	-0.007405	0.005954	-0.000457
00032	12593217	-0.289235	9.812697	0.100454	-0.003559	0.000503	-0.000238
00033	12593267	-0.299029	9.824434	0.084703	-0.003201	0.003517	-0.000355
00034	12593317	-0.304903	9.836134	0.122017	-0.008267	-0.001195	0.000055
00035	12593367	-0.298766	9.809807	0.095733	-0.002370	-0.000706	-0.001212
00036	12593417	-0.288500	9.846194	0.098071	-0.002392	0.001908	-0.003149
00037	12593467	-0.313603	9.860954	0.120627	0.000464	0.004835	-0.002115
00038	12593517	-0.289451	9.828208	0.109938	-0.006934	-0.001814	0.000815
00039	12593567	-0.275366	9.799089	0.116994	-0.003479	0.003251	0.000668
00040	12593617	-0.308041	9.808125	0.104952	-0.005855	0.005498	-0.000592
00041	12593667	-0.300845	9.820649	0.113390	0.000591	0.001929	-0.000018
00042	12593717	-0.310024	9.817192	0.115418	-0.003674	-0.001252	-0.005148
00043	12593767	-0.321586	9.809713	0.083179	-0.004938	0.001506	-0.003241
00044	12593817	-0.323064	9.828328	0.105412	-0.002246	0.002590	-0.001863
00045	12593867	-0.326506	9.830085	0.111970	-0.004383	0.000292	-0.001870
00046	12593917	-0.315173	9.806689	0.099870	-0.001743	-0.000370	-0.002203
00047	12593967	-0.335469	9.819004	0.115536	-0.001774	0.000692	-0.002614
00048	12594017	-0.315029	9.817684	0.094523	-0.000405	0.004012	-0.001445
00049	12594067	-0.311703	9.818329	0.132671	-0.002169	-0.000189	-0.003447
00050	12594117	-0.313829	9.817603	0.100957	-0.007999	0.000326	0.000127
00051	12594167	-0.323477	9.810425	0.081387	-0.006065	0.005077	-0.000140
00052	12594217	-0.306956	9.817017	0.098192	-0.004986	-0.001108	-0.001782
00053	12594267	-0.314983	9.828917	0.105021	-0.006693	0.004675	-0.001200
00054	12594317	-0.315937	9.784998	0.105761	-0.006472	0.001612	-0.001407
00055	12594367	-0.311739	9.801399	0.107304	-0.000855	0.000065	-0.000343
00056	12594417	-0.317770	9.831369	0.097560	-0.004635	0.001163	-0.000037
00057	12594467	-0.294980	9.825657	0.101530	-0.006707	-0.000106	-0.002122
00058	12594517	-0.295673	9.809895	0.107781	-0.004950	0.001091	-0.002188
00059	12594567	-0.303547	9.809646	0.102282	-0.003148	-0.000264	-0.000568
00060	12594617	-0.292152	9.811725	0.114909	-0.003946	0.002821	0.000352
00061	12594667	-0.275381	9.801771	0.112287	-0.004555	-0.000449	-0.001305
00062	12594717	-0.298705	9.813831	0.096150	-0.007608	0.003306	0.000136
00063	12594767	-0.300480	9.819647	0.102282	-0.005262	0.001094	0.002334
00064	12594817	-0.305093	9.816558	0.114067	-0.006695	0.003809	-0.000531
00065	12594867	-0.313971	9.808930	0.109858	-0.007037	0.001510	0.001444
00066	12594917	-0.286586	9.820210	0.107653	-0.004236	0.001586	-0.002187
00067	12594967	-0.305425	9.838090	0.117607	-0.004634	0.001029	-0.002924
00068	12595017	-0.291915	9.825353	0.108470	-0.005172	-0.000373	-0.004566
00069	12595067	-0.303118	9.827059	0.111773	-0.000918	-0.000230	-0.003967
00070	12595117	-0.274643	9.827749	0.105121	0.000574	0.001549	0.001039
00071	12595167	-0.296358	9.814995	0.099596	-0.004125	0.000399	0.002134
00072	12595217	-0.283047	9.808228	0.102944	-0.006390	0.002067	-0.002022
00073	12595267	-0.306749	9.831423	0.102757	-0.004185	0.002972	-0.003971
00074	12595317	-0.293157	9.823634	0.126862	-0.003964	0.001043	-0.002286
00075	12595367	-0.287501	9.822801	0.107948	-0.005098	-0.000327	-0.000850
00076	12595417	-0.308300	9.833841	0.098391	-0.004074	-0.004411	0.000124
00077	12595467	-0.311323	9.810920	0.121007	-0.003715	0.003435	-0.002529
00078	12595517	-0.310581	9.844414	0.103185	-0.002326	0.002235	0.000060
00079	12595567	-0.303015	9.821998	0.116845	-0.000965	-0.000154	0.002827
00080	12595617	-0.293769	9.791478	0.087621	-0.003116	0.001442	-0.003669
00081	12595667	-0.314685	9.817092	0.102219	0.001186	-0.000130	-0.004582
00082	12595717	-0.319543	9.812998	0.102993	-0.002687	0.002291	-0.002343
00083	12595767	-0.302457	9.802536	0.102247	-0.002678	0.002133	-0.000585
00084	12595817	-0.308600	9.817541	0.093308	-0.001618	0.000991	-0.000917
00085	12595867	-0.320294	9.819897	0.100618	-0.001472	0.003511	0.001761
00086	12595917	-0.317045	9.817996	0.119214	-0.001229	0.003837	-0.001508
00087	12595967	-0.315144	9.827983	0.088233	-0.007164	-0.000884	-0.002382
00088	12596017	-0.331741	9.836205	0.079369	-0.001989	0.005759	-0.000048
00089	12596067	-0.296109	9.816926	0.081795	-0.001056	0.000358	0.000457
00090	12596117	-0.320131	9.844231	0.091933	-0.009596	0.001301	-0.002266
00091	12596167	-0.307478	9.809054	0.106592	-0.004461	0.005273	0.002996
00092	12596217	-0.307772	9.832024	0.093681	-0.006332	0.001425	0.000577
00093	12596267	-0.293135	9.816723	0.113282	-0.006074	0.001466	0.001021
00094	12596317	-0.307804	9.813396	0.101879	-0.006705	-0.000066	0.000411
00095	12596367	-0.299840	9.806283	0.123295	-0.001489	0.002863	-0.001578
00096	12596417	-0.322426	9.821681	0.122067	-0.006044	0.002265	-0.001985
00097	12596467	-0.305669	9.815314	0.086166	-0.002854	0.001613	-0.000715
00098	12596517	-0.285352	9.820974	0.120492	-0.007626	0.000922	0.001539
00099	12596567	-0.291245	9.821576	0.092127	-0.004055	0.000913	-0.002285
00100	12596617	-0.309334	9.825311	0.128088	-0.003314	0.001926	-0.001514
00101	12596667	-0.301891	9.831349	0.096250	-0.003676	0.004077	-0.003775
00102	12596717	-0.293572	9.816655	0.101888	-0.000211	0.001952	-0.000561
00103	12596767	-0.314931	9.823798	0.113773	-0.002833	-0.001192	-0.000437
00104	12596817	-0.297366	9.821584	0.086620	-0.003623	0.001696	0.000282
00105	12596867	-0.297737	9.827248	0.119245	-0.002349	-0.000314	-0.001977
00106	12596917	-0.303384	9.831976	0.100115	-0.005800	0.003524	-0.003869
00107	12596967	-0.286921	9.832476	0.111556	-0.002973	0.002224	-0.001290
00108	12597017	-0.287242	9.808259	0.128285	-0.003782	0.002500	-0.001252
00109	12597067	-0.315854	9.821309	0.120527	-0.003169	0.004709	0.000680
00110	12597117	-0.302227	9.826188	0.122843	-0.003842	-0.000764	-0.002137
00111	12597167	-0.284624	9.804317	0.093501	-0.001727	0.002244	-0.001968
00112	12597217	-0.291083	9.806882	0.091427	-0.003909	-0.001733	-0.001567
00113	12597267	-0.293930	9.827673	0.110079	-0.002615	-0.000830	0.001806
00114	12597317	-0.301895	9.841545	0.096207	-0.002333	0.004694	0.002443
00115	12597367	-0.330660	9.826773	0.107863	-0.003108	0.004745	-0.000245
00116	12597417	-0.295485	9.823761	0.085136	-0.003073	0.003447	-0.001539
00117	12597467	-0.316021	9.801435	0.101279	-0.000855	0.002071	-0.000108
00118	12597517	-0.308340	9.806894	0.107611	-0.007206	0.002567	-0.002656
00119	12597567	-0.309335	9.784682	0.101108	-0.003824	0.002921	0.000769
00120	12597617	-0.322572	9.822959	0.115983	-0.002966	0.000000	-0.001809
00121	12597667	-0.318450	9.818254	0.101273	-0.000691	-0.000519	-0.004284
00122	12597717	-0.324560	9.819813	0.087197	-0.001740	0.004695	-0.003041
00123	12597767	-0.315231	9.823743	0.116982	-0.005828	0.000526	-0.001258
00124	12597817	-0.332842	9.810930	0.071360	-0.000366	0.000824	0.000364
00125	12597867	-0.304425	9.822372	0.107068	-0.003407	-0.000170	-0.000247
00126	12597917	-0.323326	9.834601	0.098653	-0.002064	0.002112	-0.000167
00127	12597967	-0.321666	9.834370	0.099998	-0.006158	0.000907	-0.001092
00128	12598017	-0.304107	9.811009	0.121206	-0.005533	0.003407	0.000424
00129	12598067	-0.317998	9.826849	0.082224	-0.006511	0.003540	-0.004795
00130	12598117	-0.295384	9.808511	0.105275	-0.001985	0.000309	-0.000214
00131	12598167	-0.303050	9.807947	0.074291	-0.006012	0.000367	0.000919
00132	12598217	-0.322086	9.822006	0.116627	-0.008354	0.004583	-0.002027
00133	12598267	-0.321201	9.836844	0.093209	-0.002652	0.001162	-0.002128
00134	12598317	-0.271387	9.793468	0.100178	-0.002790	-0.000744	-0.001501
00135	12598367	-0.291488	9.808792	0.121316	-0.001650	-0.002304	-0.001032
00136	12598417	-0.290940	9.828445	0.108170	-0.001479	-0.000623	-0.002237
00137	12598467	-0.296331	9.814265	0.115634	-0.003111	0.000280	-0.002644
00138	12598517	-0.291650	9.826855	0.103669	-0.005341	0.000179	-0.001679
00139	12598567	-0.304267	9.827024	0.113056	-0.003773	0.004570	0.000362
00140	12598617	-0.280014	9.811837	0.101867	-0.001405	0.001216	-0.001653
00141	12598667	-0.304741	9.829539	0.103244	-0.004120	-0.000028	-0.002195
00142	12598717	-0.304180	9.835017	0.149414	-0.002438	-0.000547	-0.001463
00143	12598767	-0.311787	9.821934	0.098940	-0.004235	-0.000415	-0.002293
00144	12598817	-0.317436	9.832975	0.101144	-0.005398	0.001918	-0.003586
00145	12598867	-0.287771	9.820147	0.111067	-0.004997	-0.001688	-0.002202
00146	12598917	-0.288913	9.818181	0.114604	-0.000669	0.003298	-0.001357
00147	12598967	-0.291613	9.813265	0.092578	-0.003833	0.002242	-0.001258
00148	12599017	-0.311610	9.819210	0.091255	-0.003155	-0.000066	0.001297
00149	12599067	-0.320021	9.814754	0.095894	-0.004572	0.002030	-0.004042
00150	12599117	-0.301104	9.811335	0.101973	-0.002611	0.003237	0.001471
00151	12599167	-0.299514	9.826784	0.117150	-0.004569	0.001130	-0.000487
00152	12599217	-0.296096	9.829407	0.103423	-0.005213	0.000343	-0.000110
00153	12599267	-0.319568	9.828881	0.102744	-0.001962	0.002431	-0.003370
00154	12599317	-0.295921	9.825258	0.110799	-0.000901	0.002488	-0.000906
00155	12599367	-0.313863	9.800787	0.099158	-0.002570	0.002651	-0.001255
00156	12599417	-0.321147	9.816479	0.090863	-0.003879	0.002530	-0.002338
00157	12599467	-0.306944	9.823668	0.082078	-0.002304	0.000332	0.000462
00158	12599517	-0.296381	9.805573	0.110597	-0.003243	0.002737	-0.000548
00159	12599567	-0.314949	9.821423	0.082883	-0.002714	0.005526	-0.000052
00160	12599617	-0.311798	9.810550	0.098661	-0.002601	-0.002480	-0.000382
00161	12599667	-0.319866	9.819788	0.092507	-0.004962	0.000245	-0.003090
00162	12599717	-0.314631	9.811769	0.093890	-0.002784	0.003424	-0.000578
00163	12599767	-0.308750	9.821190	0.102968	-0.002768	0.003676	-0.003203
00164	12599817	-0.306293	9.819509	0.106332	-0.003115	0.001805	-0.000297
00165	12599867	-0.303882	9.806662	0.095608	-0.006407	0.000746	-0.000133
00166	12599917	-0.325988	9.824907	0.094229	-0.005473	0.001668	0.001030
00167	12599967	-0.309331	9.807465	0.100299	-0.000895	0.002654	0.001916
00168	12600017	-0.309325	9.820579	0.096487	-0.002625	-0.000577	-0.000565
00169	12600067	-0.310740	9.829357	0.110717	-0.004441	0.001132	-0.001386
00170	12600117	-0.298474	9.809256	0.101152	-0.009219	0.002665	0.000206
00171	12600167	-0.303122	9.819206	0.097635	-0.001021	-0.001743	0.000355
00172	12600217	-0.311648	9.829574	0.111127	-0.003742	0.003601	0.000455
00173	12600267	-0.289675	9.809830	0.101186	-0.000976	-0.000386	-0.001561
00174	12600317	-0.314153	9.845814	0.133075	-0.007582	0.001661	-0.000060
00175	12600367	-0.292220	9.813322	0.103673	-0.005731	-0.001639	-0.002455
00176	12600417	-0.302216	9.834381	0.114645	-0.000557	-0.002318	-0.000742
00177	12600467	-0.321310	9.829332	0.134138	-0.001743	0.000921	-0.001166
00178	12600517	-0.281131	9.803416	0.109055	-0.001723	0.003050	-0.003625
00179	12600567	-0.312286	9.819674	0.121467	-0.005040	0.002192	-0.000128
00180	12600617	-0.305883	9.844715	0.102996	-0.004118	0.000171	-0.001325
00181	12600667	-0.306897	9.830551	0.113109	-0.004806	-0.002325	0.000681
00182	12600717	-0.300305	9.812589	0.114177	-0.002465	0.001328	-0.001389
00183	12600767	-0.313284	9.830240	0.096992	-0.002668	0.001813	-0.001190
00184	12600817	-0.308319	9.826593	0.106803	-0.001498	0.000089	-0.002100
00185	12600867	-0.292334	9.814734	0.088536	-0.001439	0.001284	-0.001232
00186	12600917	-0.315502	9.818509	0.102236	-0.002856	0.000811	0.000694
00187	12600967	-0.294363	9.807425	0.099618	-0.004596	-0.001866	0.001838
00188	12601017	-0.313610	9.817230	0.109936	-0.003426	0.003543	-0.000411
00189	12601067	-0.299977	9.809186	0.103923	-0.003186	-0.001072	-0.000373
00190	12601117	-0.322708	9.831164	0.075586	-0.004938	0.001639	-0.000449
00191	12601167	-0.321239	9.821730	0.104303	-0.004999	-0.001229	0.000339
00192	12601217	-0.317039	9.816065	0.090410	-0.006167	0.003397	0.000236
00193	12601267	-0.312881	9.809221	0.076115	-0.008551	-0.000457	-0.001059
00194	12601317	-0.346706	9.827934	0.111728	-0.000892	0.001425	-0.000205
00195	12601367	-0.332929	9.821286	0.107918	-0.004763	0.002620	0.002155
00196	12601417	-0.318883	9.811790	0.120641	-0.006080	0.002461	-0.000344
00197	12601467	-0.326029	9.816570	0.080853	-0.008657	0.001261	0.002985
00198	12601517	-0.310590	9.828069	0.101813	-0.004793	0.001259	-0.000355
00199	12601567	-0.319023	9.826808	0.115468	-0.002220	0.000721	0.000371
00200	12601617	-0.287951	9.817907	0.102045	-0.007747	0.000522	-0.002539
00201	12601667	-0.307017	9.817564	0.124798	-0.003832	0.001407	0.001980
00202	12601717	-0.315129	9.827129	0.097609	-0.007816	-0.000313	-0.001412
00203	12601767	-0.291083	9.831945	0.112564	-0.007197	0.000109	-0.003564
00204	12601817	-0.294764	9.828614	0.110471	-0.005711	-0.002153	-0.000951
00205	12601867	-0.291967	9.825527	0.112412	-0.000662	0.001774	-0.004917
00206	12601917	-0.314368	9.820817	0.107347	-0.003950	0.002918	-0.001597
00207	12601967	-0.317553	9.826702	0.092228	-0.003461	0.003403	-0.004322
00208	12602017	-0.305007	9.821782	0.129608	-0.005115	0.005645	0.000181
00209	12602067	-0.300638	9.813520	0.083801	-0.003421	-0.001951	-0.001244
00210	12602117	-0.302202	9.821385	0.095572	-0.002845	-0.000904	-0.001495
00211	12602167	-0.307911	9.814382	0.114882	-0.008167	0.001843	-0.000310
00212	12602217	-0.308493	9.834574	0.081114	-0.002255	-0.001286	-0.001914
00213	12602267	-0.293663	9.817122	0.102144	-0.001451	0.000601	-0.001813
00214	12602317	-0.299895	9.825687	0.080130	-0.001672	0.002002	0.003994
00215	12602367	-0.298562	9.814162	0.089943	-0.002451	0.000712	-0.003473
00216	12602417	-0.272919	9.803135	0.103036	-0.002688	0.001521	0.000659
00217	12602467	-0.306618	9.802406	0.107732	-0.002725	0.000981	0.004058
00218	12602517	-0.297196	9.821472	0.094136	-0.004717	0.000643	-0.001320
00219	12602567	-0.303848	9.821693	0.089740	-0.004186	0.001232	-0.001036
00220	12602617	-0.292919	9.812966	0.111340	-0.004826	0.000190	-0.001325
00221	12602667	-0.316219	9.818324	0.097910	0.000022	0.002857	-0.000970
00222	12602717	-0.293132	9.834894	0.104175	-0.005440	0.000404	-0.000937
00223	12602767	-0.283840	9.819012	0.095270	-0.005584	-0.001112	-0.000627
00224	12602817	-0.312379	9.818391	0.097527	-0.004530	0.003070	-0.001788
00225	12602867	-0.302534	9.813313	0.111593	-0.004832	0.003316	-0.002621
00226	12602917	-0.301780	9.824647	0.099961	-0.008494	0.000029	0.000419
00227	12602967	-0.316511	9.831366	0.113629	-0.004939	0.000539	-0.003082
00228	12603017	-0.315981	9.819660	0.104201	-0.002932	-0.000899	0.001806
00229	12603067	-0.307989	9.817057	0.125797	-0.004228	0.001819	0.001856
00230	12603117	-0.316482	9.828200	0.119593	-0.006500	0.001644	-0.001281
00231	12603167	-0.306138	9.815681	0.093199	-0.004850	0.001063	0.000700
00232	12603217	-0.291551	9.812799	0.122711	-0.001211	0.002385	-0.000137
00233	12603267	-0.288436	9.804073	0.091139	-0.003758	0.002921	-0.001057
00234	12603317	-0.298207	9.817866	0.111929	-0.007894	0.002102	-0.001564
00235	12603367	-0.319615	9.823997	0.096924	-0.007875	0.001658	-0.001082
00236	12603417	-0.309622	9.819977	0.104233	-0.006344	-0.001449	-0.000559
00237	12603467	-0.310333	9.822766	0.107527	-0.002095	0.000015	0.000267
00238	12603517	-0.319041	9.814819	0.092578	-0.005274	0.000148	-0.001129
00239	12603567	-0.295206	9.821362	0.118293	-0.004580	0.001517	-0.001576
00240	12603617	-0.308123	9.812648	0.119160	-0.006493	-0.003646	0.001319
00241	12603667	-0.293612	9.816189	0.101126	0.000544	0.001185	-0.002389
00242	12603717	-0.310259	9.813853	0.100638	-0.004049	0.002848	-0.003076
00243	12603767	-0.317914	9.825606	0.117423	-0.004188	0.000199	-0.002030
00244	12603817	-0.295737	9.814342	0.111816	-0.005268	0.002155	-0.000098
00245	12603867	-0.311122	9.817163	0.116738	-0.005998	0.001717	-0.002788
00246	12603917	-0.304304	9.833076	0.105140	-0.004169	-0.002473	-0.000089
00247	12603967	-0.297974	9.813758	0.117127	-0.004866	0.000348	-0.002351
00248	12604017	-0.307772	9.828622	0.098463	-0.005148	0.000542	0.000988
00249	12604067	-0.301822	9.824441	0.098239	-0.007124	0.003053	-0.002426
00250	12604117	-0.310782	9.825272	0.098182	-0.001562	0.000244	-0.000245
00251	12604167	-0.324337	9.820248	0.090031	-0.010576	-0.000010	-0.000826
00252	12604217	-0.278126	9.811427	0.099524	-0.006067	0.000711	-0.004523
00253	12604267	-0.288786	9.811634	0.108430	-0.003526	0.001535	-0.001707
00254	12604317	-0.301464	9.835772	0.117095	-0.004329	-0.000084	0.001848
00255	12604367	-0.305345	9.829614	0.113287	-0.001839	0.000688	-0.004020
00256	12604417	-0.294896	9.829420	0.103392	-0.003693	0.001957	0.000222
00257	12604467	-0.323740	9.808393	0.105668	-0.003329	0.002771	0.001250
00258	12604517	-0.308544	9.832180	0.098410	-0.002701	0.000681	-0.000782
00259	12604567	-0.320547	9.820684	0.095869	-0.004116	0.003009	-0.002912
00260	12604617	-0.314203	9.836535	0.119182	-0.005949	0.001365	-0.000607
00261	12604667	-0.305976	9.810534	0.119754	-0.002957	0.000939	0.000915
00262	12604717	-0.299393	9.822075	0.099621	-0.004936	0.003738	-0.002170
00263	12604767	-0.306837	9.817941	0.115980	-0.005294	0.002795	-0.001628
00264	12604817	-0.305662	9.824249	0.107255	-0.001810	0.003021	-0.001127
00265	12604867	-0.306549	9.828761	0.121656	-0.003134	-0.001851	-0.002363
00266	12604917	-0.300942	9.832061	0.111605	-0.003017	0.001937	0.001761
00267	12604967	-0.300167	9.819496	0.081136	-0.002632	0.001650	-0.001031
00268	12605017	-0.302393	9.811455	0.124278	-0.004245	-0.000629	0.002260
00269	12605067	-0.306537	9.818697	0.097706	-0.002571	0.001518	-0.003758
00270	12605117	-0.306779	9.809281	0.092532	-0.006754	-0.000648	-0.000779
00271	12605167	-0.293844	9.811472	0.083435	-0.001171	-0.003029	0.001629
00272	12605217	-0.314666	9.816384	0.117618	-0.003881	-0.002377	-0.000986
00273	12605267	-0.328365	9.828314	0.102355	-0.004245	-0.000162	-0.003698
00274	12605317	-0.315189	9.815742	0.097531	-0.004793	-0.001613	0.000973
00275	12605367	-0.296482	9.833167	0.105866	-0.004639	-0.000712	-0.001527
00276	12605417	-0.295723	9.806210	0.131413	-0.001349	0.002904	0.001083
00277	12605467	-0.325483	9.841886	0.117196	-0.002983	0.002641	-0.001989
00278	12605517	-0.292989	9.799327	0.102588	0.000266	-0.001275	-0.002949
00279	12605567	-0.303609	9.827102	0.108430	-0.001433	0.003053	-0.002825
00280	12605617	-0.316045	9.816694	0.112180	-0.003656	0.003829	-0.000761
00281	12605667	-0.298191	9.821405	0.097913	-0.002883	0.002419	-0.001927
00282	12605717	-0.288846	9.802554	0.096679	-0.004692	0.002101	-0.000451
00283	12605767	-0.289715	9.810425	0.093501	-0.001058	0.001056	-0.003444
00284	12605817	-0.292133	9.808638	0.099544	-0.002240	0.000004	-0.003640
00285	12605867	-0.293332	9.809231	0.106192	-0.001590	0.005248	-0.001786
00286	12605917	-0.297689	9.828835	0.108688	-0.003239	-0.001760	-0.004738
00287	12605967	-0.306952	9.822300	0.094473	-0.007373	-0.000144	-0.001132
00288	12606017	-0.300771	9.810749	0.109688	-0.004914	0.000767	-0.002637
00289	12606067	-0.300530	9.837167	0.088828	-0.004126	0.002033	-0.004682
00290	12606117	-0.297700	9.814831	0.108984	-0.003301	0.001410	-0.002377
00291	12606167	-0.313110	9.835603	0.088128	-0.003427	0.000275	-0.003152
00292	12606217	-0.308896	9.818371	0.101105	-0.002453	0.001907	-0.002795
00293	12606267	-0.292787	9.836385	0.115442	-0.005756	0.001103	-0.003788
00294	12606317	-0.309384	9.807512	0.097207	-0.000712	0.002746	0.000313
00295	12606367	-0.307669	9.820316	0.114587	-0.007521	0.000135	-0.004647
00296	12606417	-0.304178	9.818402	0.118586	-0.004255	-0.001638	0.000554
00297	12606467	-0.292438	9.839430	0.102714	-0.005382	0.000864	0.001594
00298	12606517	-0.294836	9.812135	0.117051	-0.003970	0.003659	-0.000314
00299	12606567	-0.299011	9.843605	0.118955	-0.002448	0.002044	0.000475
00300	12606617	-0.301194	9.825801	0.118158	-0.006164	0.000908	-0.003044
00301	12606667	-0.310492	9.829884	0.107019	-0.001837	0.001497	-0.002798
00302	12606717	-0.311898	9.824556	0.113283	-0.002066	0.000911	-0.002099
00303	12606767	-0.328280	9.835299	0.095683	-0.004487	0.002943	0.000361
00304	12606817	-0.308357	9.805341	0.131762	-0.004213	0.000138	0.000341
00305	12606867	-0.298393	9.816781	0.105625	-0.006617	-0.000715	-0.000748
00306	12606917	-0.314442	9.808133	0.130200	-0.008979	-0.001014	-0.002086
00307	12606967	-0.292278	9.813566	0.087660	-0.006392	-0.000934	-0.000331
00308	12607017	-0.291187	9.818300	0.104992	-0.001355	-0.000164	0.000554
00309	12607067	-0.317356	9.822556	0.115735	-0.003127	0.002123	-0.001445
00310	12607117	-0.301562	9.817137	0.079172	-0.002225	0.004106	-0.001441
00311	12607167	-0.318264	9.819553	0.124818	-0.002146	-0.002602	0.000642
00312	12607217	-0.296720	9.813581	0.067377	-0.000862	0.002229	-0.000878
00313	12607267	-0.306970	9.813957	0.112278	-0.001863	-0.000600	-0.002744
00314	12607317	-0.300815	9.808419	0.091559	-0.006944	0.001605	0.000550
00315	12607367	-0.293373	9.800561	0.099526	-0.004289	0.001524	-0.001448
00316	12607417	-0.299490	9.824139	0.088633	-0.005452	0.004091	0.000813
00317	12607467	-0.309258	9.817854	0.103396	-0.001402	0.003581	0.001859
00318	12607517	-0.310872	9.828468	0.090784	-0.004206	0.002812	-0.001630
00319	12607567	-0.295665	9.827878	0.110829	-0.001811	0.001018	-0.000394
00320	12607617	-0.312506	9.831126	0.086453	-0.003069	-0.001715	-0.000282
00321	12607667	-0.314334	9.806819	0.107837	-0.004313	0.002002	-0.004264
00322	12607717	-0.312353	9.835827	0.089361	-0.005066	0.001867	-0.000963
00323	12607767	-0.299673	9.818736	0.115379	-0.002456	0.001298	-0.000749
00324	12607817	-0.300668	9.831526	0.100693	-0.000653	0.001913	0.000626
00325	12607867	-0.311151	9.814885	0.125778	-0.003300	-0.003654	-0.001059
00326	12607917	-0.294827	9.807596	0.118958	-0.002372	0.001428	-0.002641
00327	12607967	-0.279192	9.789057	0.103096	-0.005099	0.001930	0.000961
00328	12608017	-0.303755	9.819561	0.105160	-0.004219	0.003034	-0.004034
00329	12608067	-0.323848	9.832273	0.111205	-0.003306	-0.001430	-0.001621
00330	12608117	-0.319993	9.821404	0.126579	-0.005390	0.002055	-0.001021
00331	12608167	-0.309199	9.820681	0.104746	-0.005151	-0.000786	-0.002708
00332	12608217	-0.295497	9.822921	0.109409	-0.004895	-0.001983	-0.005279
00333	12608267	-0.307847	9.825480	0.102535	-0.005578	0.003625	-0.004252
00334	12608317	-0.313654	9.837343	0.097778	-0.004618	0.001708	-0.002757
00335	12608367	-0.293559	9.809806	0.100077	-0.004962	0.000445	-0.001451
00336	12608417	-0.298802	9.817446	0.092387	-0.002474	0.000520	-0.002481
00337	12608467	-0.316149	9.813893	0.093284	-0.003737	0.003346	-0.000446
00338	12608517	-0.300113	9.804693	0.103229	-0.005084	0.000215	-0.001169
00339	12608567	-0.297073	9.820917	0.114911	-0.003510	0.005446	-0.000563
00340	12608617	-0.294806	9.834015	0.098153	-0.004503	0.001064	-0.002091
00341	12608667	-0.301651	9.812263	0.102983	-0.005227	0.000767	-0.000453
00342	12608717	-0.299111	9.820899	0.098619	-0.002285	0.001750	-0.001804
00343	12608767	-0.329811	9.833070	0.100476	-0.003069	0.002449	-0.001183
00344	12608817	-0.299770	9.819838	0.105500	-0.000644	0.000626	0.000875
00345	12608867	-0.308006	9.833641	0.095627	0.001210	0.002690	0.001238
00346	12608917	-0.316327	9.812776	0.104263	-0.004411	0.003495	0.001036
00347	12608967	-0.317921	9.831832	0.113384	-0.004558	-0.002325	-0.001270
00348	12609017	-0.286355	9.815902	0.110231	-0.002103	0.002777	-0.005419
00349	12609067	-0.303435	9.811028	0.089511	-0.003944	0.003825	-0.000601
00350	12609117	-0.295592	9.811236	0.097431	-0.002746	0.001105	0.000308
00351	12609167	-0.313369	9.817936	0.095459	-0.006682	0.004420	-0.001710
00352	12609217	-0.301595	9.808910	0.089790	-0.004993	0.003412	-0.003294
00353	12609267	-0.294980	9.812109	0.087519	-0.002719	0.001221	-0.003149
00354	12609317	-0.298482	9.822858	0.096018	-0.003867	0.002008	-0.003946
00355	12609367	-0.314152	9.829939	0.100619	-0.003421	0.001480	0.000829
00356	12609417	-0.306021	9.810439	0.094769	-0.001354	0.002101	0.003679
00357	12609467	-0.297061	9.818158	0.109146	-0.003246	0.001568	-0.003789
00358	12609517	-0.301838	9.825425	0.080447	-0.003748	0.001697	0.001536
00359	12609567	-0.299008	9.826836	0.098883	-0.004240	-0.000089	-0.001134
00360	12609617	-0.304891	9.821733	0.101758	-0.002819	0.000547	-0.000878
00361	12609667	-0.296482	9.817369	0.099294	-0.000794	0.001001	-0.002099
00362	12609717	-0.312217	9.818910	0.109634	-0.001080	0.000229	0.000527
00363	12609767	-0.311644	9.829123	0.109562	-0.006001	0.002138	-0.000123
00364	12609817	-0.300906	9.816982	0.089785	-0.005246	-0.001951	-0.002615
00365	12609867	-0.294703	9.826465	0.111110	-0.005258	0.000730	0.000505
00366	12609917	-0.300836	9.825923	0.094815	-0.005633	-0.000672	-0.001069
00367	12609967	-0.293328	9.827330	0.102003	-0.006527	-0.001919	-0.003639
00368	12610017	-0.314727	9.822418	0.126635	-0.005855	0.003717	0.000493
00369	12610067	-0.302441	9.820211	0.109902	-0.005554	0.002208	0.001381
00370	12610117	-0.307326	9.808289	0.110154	-0.002622	0.003353	-0.001186
00371	12610167	-0.309837	9.802332	0.125504	-0.002880	0.003377	-0.001922
00372	12610217	-0.308273	9.806016	0.087469	-0.004602	0.002421	0.001574
00373	12610267	-0.302915	9.814826	0.120429	-0.002498	-0.001545	0.001866
00374	12610317	-0.307600	9.805122	0.099934	-0.005236	0.002684	-0.005025
00375	12610367	-0.324341	9.827955	0.113877	-0.002933	0.002953	-0.002853
00376	12610417	-0.311542	9.814681	0.107290	-0.002556	-0.000910	-0.001720
00377	12610467	-0.297748	9.816945	0.110576	-0.002301	0.001293	-0.001455
00378	12610517	-0.302175	9.819221	0.097960	-0.004870	0.002666	-0.001150
00379	12610567	-0.304351	9.822701	0.101038	-0.005428	0.002079	-0.000194
00380	12610617	-0.315045	9.821358	0.087200	-0.003283	0.000882	-0.002988
00381	12610667	-0.310830	9.811822	0.093715	-0.004829	0.002380	0.000259
00382	12610717	-0.310244	9.820010	0.102183	-0.007976	0.001970	0.001673
00383	12610767	-0.318782	9.827206	0.105077	-0.007571	0.001971	-0.001659
00384	12610817	-0.311663	9.811863	0.090118	-0.003918	0.001710	-0.002662
00385	12610867	-0.327706	9.827043	0.124053	-0.007827	-0.000133	-0.002820
00386	12610917	-0.283275	9.816066	0.086663	-0.007033	0.001173	-0.000512
00387	12610967	-0.307490	9.824611	0.113108	-0.005466	0.000840	-0.005323
00388	12611017	-0.305073	9.827947	0.098943	-0.004902	-0.002525	0.001385
00389	12611067	-0.321974	9.835939	0.105272	-0.005202	-0.000082	-0.000588
00390	12611117	-0.318790	9.829090	0.106168	-0.003782	-0.001413	-0.000562
00391	12611167	-0.303792	9.802231	0.121387	-0.003885	0.001944	-0.000132
00392	12611217	-0.317743	9.816648	0.113522	-0.002191	-0.001224	-0.000954
00393	12611267	-0.308000	9.819237	0.107712	-0.000899	-0.000848	-0.002041
00394	12611317	-0.303827	9.821592	0.096002	-0.002646	0.001958	-0.001708
00395	12611367	-0.311372	9.835269	0.126485	-0.004621	0.002062	0.000386
00396	12611417	-0.316212	9.819691	0.101860	-0.003766	0.001369	0.002433
00397	12611467	-0.298802	9.809841	0.108627	-0.002697	0.000444	-0.002418
00398	12611517	-0.295261	9.831864	0.113750	-0.004210	0.002263	0.001188
00399	12611567	-0.304571	9.831059	0.112816	-0.003134	-0.000629	-0.000565
00400	12611617	-0.294681	9.817017	0.107957	-0.002769	0.001860	-0.002311
00401	12611667	-0.314200	9.810784	0.096515	-0.002341	0.000418	-0.001519
00402	12611717	-0.283877	9.812463	0.104564	-0.002810	0.000858	-0.004372
00403	12611767	-0.324128	9.833841	0.116695	-0.002725	0.003871	-0.000252
00404	12611817	-0.298454	9.813339	0.097438	-0.003287	0.003409	0.001958
00405	12611867	-0.298862	9.822998	0.101495	-0.003573	-0.000858	0.000717
00406	12611917	-0.294910	9.827505	0.104910	-0.005655	0.004366	0.001103
00407	12611967	-0.303457	9.817455	0.103417	-0.001883	-0.000062	-0.003064
00408	12612017	-0.295523	9.816936	0.112742	-0.000942	0.004900	-0.001276
00409	12612067	-0.310681	9.819397	0.094855	-0.003088	0.003090	0.001220
00410	12612117	-0.305835	9.822657	0.102564	-0.006562	0.003409	-0.001717
00411	12612167	-0.316848	9.825722	0.110789	-0.005255	0.001790	-0.000095
00412	12612217	-0.298227	9.826679	0.094122	-0.005744	0.002875	-0.002140
00413	12612267	-0.308514	9.829374	0.111042	-0.002035	0.002403	0.002620
00414	12612317	-0.304368	9.807799	0.097878	-0.002237	-0.002897	0.001027
00415	12612367	-0.309610	9.811673	0.088886	-0.005727	0.002395	-0.000605
00416	12612417	-0.305065	9.811604	0.112532	-0.002810	0.000149	-0.000916
00417	12612467	-0.308394	9.809731	0.076986	-0.006274	0.000477	-0.001444
00418	12612517	-0.323253	9.826563	0.096581	-0.001354	0.004860	-0.000760
00419	12612567	-0.307014	9.815928	0.107344	-0.006380	0.002602	-0.003549
00420	12612617	-0.306152	9.809160	0.100877	-0.005932	-0.000554	-0.003570
00421	12612667	-0.295412	9.818808	0.114929	-0.005147	0.004208	-0.002779
00422	12612717	-0.306129	9.821658	0.105801	-0.002107	0.002035	-0.003018
00423	12612767	-0.327867	9.829248	0.104075	-0.005075	0.002984	-0.002266
00424	12612817	-0.302400	9.824741	0.108644	-0.002556	0.000056	-0.003640
00425	12612867	-0.304231	9.827293	0.095554	-0.003137	0.000242	-0.002227
00426	12612917	-0.302699	9.819704	0.096529	-0.005574	0.000389	-0.003791
00427	12612967	-0.310181	9.825524	0.097764	-0.005219	0.000300	-0.002668
00428	12613017	-0.306876	9.813225	0.098274	-0.008307	0.003189	-0.001426
00429	12613067	-0.282345	9.798182	0.124332	-0.007416	0.001102	-0.001314
00430	12613117	-0.304020	9.808276	0.098151	-0.002722	-0.001916	-0.002783
00431	12613167	-0.290775	9.809165	0.112959	-0.003134	0.000044	-0.003029
00432	12613217	-0.306851	9.832764	0.092436	-0.003073	0.002507	0.000319
00433	12613267	-0.300142	9.830388	0.098213	-0.006302	-0.001485	0.001492
00434	12613317	-0.308791	9.819289	0.103214	-0.004465	0.003504	-0.005728
00435	12613367	-0.300758	9.821554	0.116476	-0.005493	0.000548	-0.006191
00436	12613417	-0.319038	9.819419	0.086075	-0.005826	0.000389	-0.002412
00437	12613467	-0.304505	9.832545	0.108413	-0.000700	0.001556	0.001751
00438	12613517	-0.312731	9.806772	0.111866	-0.003143	0.000866	0.002877
00439	12613567	-0.296655	9.831923	0.109230	-0.005297	0.000048	0.001079
00440	12613617	-0.295896	9.811819	0.106036	-0.003326	0.001473	0.001370
00441	12613667	-0.318425	9.835320	0.102051	-0.002307	0.003256	-0.004743
00442	12613717	-0.300312	9.804027	0.130749	-0.003544	0.003304	-0.000542
00443	12613767	-0.322200	9.816055	0.102365	-0.005514	0.003718	-0.002006
00444	12613817	-0.318672	9.837899	0.103928	-0.002379	-0.001455	-0.001270
00445	12613867	-0.308539	9.826122	0.106724	-0.000104	-0.000545	-0.002204
00446	12613917	-0.302161	9.827606	0.107553	-0.002337	0.001159	-0.003057
00447	12613967	-0.296157	9.800288	0.114855	-0.004232	-0.002784	-0.003748
00448	12614017	-0.314032	9.822346	0.085813	-0.004383	0.000383	-0.000717
00449	12614067	-0.312360	9.840664	0.114584	-0.006295	-0.001138	-0.002860
00450	12614117	-0.320293	9.832492	0.099487	-0.004903	0.001467	-0.003977
00451	12614167	-0.276592	9.806767	0.110516	-0.004344	-0.000837	0.000427
00452	12614217	-0.295900	9.805576	0.110582	-0.003840	0.002591	-0.000226
00453	12614267	-0.309123	9.812803	0.077153	-0.004818	0.001957	-0.000866
00454	12614317	-0.300541	9.813113	0.095015	-0.004502	0.003055	-0.003393
00455	12614367	-0.296966	9.818521	0.085924	-0.003925	0.002401	0.002787
00456	12614417	-0.303039	9.808480	0.101373	-0.006115	0.001481	-0.000703
00457	12614467	-0.312833	9.836277	0.090603	-0.007678	-0.002675	0.000305
00458	12614517	-0.303070	9.815245	0.093225	-0.006891	-0.000338	-0.001643
00459	12614567	-0.295455	9.811003	0.097760	-0.006942	0.001108	-0.003238
00460	12614617	-0.314747	9.815569	0.124452	-0.006884	0.001402	-0.003200
00461	12614667	-0.301409	9.832440	0.102454	-0.003813	0.001491	-0.000872
00462	12614717	-0.283417	9.814568	0.091387	-0.004398	0.000938	0.001945
00463	12614767	-0.325136	9.837159	0.100671	-0.004694	0.004954	-0.003860
00464	12614817	-0.300934	9.812283	0.102498	-0.004638	0.000150	-0.001644
00465	12614867	-0.300580	9.819476	0.113548	-0.005414	-0.004539	0.000125
00466	12614917	-0.302593	9.809475	0.098603	-0.003496	0.004623	-0.003164
00467	12614967	-0.314299	9.822191	0.095338	-0.003911	0.002851	0.001605
00468	12615017	-0.303086	9.826173	0.107474	-0.001508	0.000302	-0.001907
00469	12615067	-0.275328	9.808907	0.111485	-0.004611	-0.000726	-0.003707
00470	12615117	-0.310838	9.820258	0.100604	-0.003941	0.004520	-0.003226
00471	12615167	-0.304300	9.833409	0.099155	-0.004572	0.001022	-0.003340
00472	12615217	-0.292546	9.805584	0.112969	-0.003138	0.001539	-0.000392
00473	12615267	-0.286879	9.827227	0.114073	-0.000258	0.003617	-0.000454
00474	12615317	-0.283813	9.810913	0.113045	-0.007165	0.002401	-0.000248
00475	12615367	-0.290509	9.823461	0.093854	-0.005771	-0.000317	-0.000236
00476	12615417	-0.296936	9.812173	0.113308	-0.006346	-0.001423	-0.000594
00477	12615467	-0.307528	9.824720	0.105887	-0.005890	0.001749	0.000227
00478	12615517	-0.312556	9.832865	0.112399	-0.004255	0.002121	-0.004617
00479	12615567	-0.302146	9.828547	0.108601	-0.008122	-0.000075	-0.003015
00480	12615617	-0.308674	9.824152	0.096051	-0.004178	-0.000225	-0.001939
00481	12615667	-0.303421	9.812773	0.099165	-0.002639	-0.002629	-0.004423
00482	12615717	-0.292412	9.809373	0.082600	-0.006700	0.002930	0.000583
00483	12615767	-0.311592	9.826714	0.111813	-0.002705	0.002098	0.001213
00484	12615817	-0.303984	9.793685	0.090530	-0.004895	0.001244	-0.000903
00485	12615867	-0.304079	9.823689	0.114186	-0.003767	0.000036	-0.002608
00486	12615917	-0.319943	9.816184	0.095900	-0.004827	0.002413	-0.000123
00487	12615967	-0.305329	9.807677	0.089751	-0.002506	0.003809	-0.001019
00488	12616017	-0.302721	9.828315	0.092231	-0.003416	0.001212	-0.000584
00489	12616067	-0.307651	9.829342	0.114335	-0.006051	0.000612	-0.000034
00490	12616117	-0.301654	9.811971	0.091260	-0.005420	0.001781	-0.002373
00491	12616167	-0.312714	9.815931	0.102561	-0.005627	0.002264	-0.001565
00492	12616217	-0.321800	9.837346	0.075654	-0.008012	0.005002	-0.000869
00493	12616267	-0.318935	9.824080	0.092062	-0.006604	-0.001466	-0.002608
00494	12616317	-0.299304	9.814214	0.101739	-0.003106	0.003506	-0.000764
00495	12616367	-0.316470	9.818115	0.096378	-0.004771	0.002377	-0.001409
00496	12616417	-0.312532	9.822294	0.105406	-0.003784	0.000425	-0.001837
00497	12616467	-0.295946	9.801426	0.102679	-0.003754	0.002953	0.001539
00498	12616517	-0.314361	9.809475	0.120060	-0.003871	0.001296	-0.002187
00499	12616567	-0.311627	9.812280	0.109670	-0.002839	0.002421	0.002432
00500	12616617	-0.307001	9.817882	0.103987	-0.004653	0.000732	-0.001802
00501	12616667	-0.298687	9.828197	0.087378	-0.003929	0.001937	-0.002409
00502	12616717	-0.307769	9.821336	0.110027	-0.006872	-0.000821	-0.000396
00503	12616767	-0.295413	9.806713	0.114680	-0.005190	0.004793	-0.000400
00504	12616817	-0.309050	9.808529	0.108742	-0.003093	0.001953	-0.001927
00505	12616867	-0.314320	9.837517	0.085711	-0.003269	0.002301	-0.004938
00506	12616917	-0.308464	9.827642	0.100083	-0.002443	0.000878	0.001367
00507	12616967	-0.307151	9.813514	0.109754	-0.003065	0.001215	-0.000103
00508	12617017	-0.305117	9.822960	0.098786	-0.009098	-0.000314	-0.000864
00509	12617067	-0.294273	9.803963	0.093785	-0.002723	-0.000652	-0.000056
00510	12617117	-0.291517	9.806747	0.099706	-0.001340	0.003473	0.000153
00511	12617167	-0.308102	9.827316	0.106633	-0.003869	0.001262	-0.001482
00512	12617217	-0.310655	9.821436	0.116510	-0.005902	0.001874	-0.001216
00513	12617267	-0.306411	9.815192	0.093878	-0.003897	0.000936	-0.002570
00514	12617317	-0.304075	9.828379	0.118513	-0.003095	-0.001945	0.000073
00515	12617367	-0.321914	9.840911	0.090880	-0.004327	0.002611	-0.000765
00516	12617417	-0.295327	9.812766	0.106494	-0.002320	0.004737	-0.003907
00517	12617467	-0.301924	9.826649	0.108723	-0.004853	0.004055	-0.002010
00518	12617517	-0.294228	9.812531	0.122849	-0.004029	0.002062	-0.003850
00519	12617567	-0.292538	9.806870	0.106250	-0.005070	0.004086	-0.000536
00520	12617617	-0.299244	9.834270	0.092980	-0.005777	0.000809	-0.001251
00521	12617667	-0.327334	9.824860	0.111787	-0.006896	-0.000981	0.000087
00522	12617717	-0.328905	9.823491	0.107212	-0.005062	-0.000272	0.000181
00523	12617767	-0.308690	9.824335	0.099234	-0.006174	-0.000679	-0.001004
00524	12617817	-0.313298	9.809022	0.104300	-0.007391	0.002328	-0.001176
00525	12617867	-0.299772	9.829771	0.076674	-0.006516	0.000991	-0.000644
00526	12617917	-0.302350	9.798859	0.095139	-0.005433	0.001208	0.001373
00527	12617967	-0.315794	9.819148	0.091743	-0.003657	0.000422	-0.003538
00528	12618017	-0.309851	9.820765	0.129876	-0.003032	-0.000013	-0.002419
00529	12618067	-0.298919	9.814084	0.110280	-0.001466	-0.001121	-0.004639
00530	12618117	-0.298815	9.803932	0.107321	-0.003113	0.001367	-0.004814
00531	12618167	-0.307672	9.812799	0.109608	-0.001456	0.001720	-0.003120
00532	12618217	-0.308973	9.821907	0.102596	-0.006999	0.000946	-0.002756
00533	12618267	-0.298219	9.819131	0.106605	-0.005393	0.000881	-0.000999
00534	12618317	-0.296130	9.807806	0.103955	-0.006513	-0.001170	-0.000591
00535	12618367	-0.314124	9.832885	0.125516	-0.002664	0.000905	0.001691
00536	12618417	-0.301470	9.826604	0.111833	-0.001965	0.002619	-0.003819
00537	12618467	-0.329820	9.840935	0.097859	-0.003650	0.000565	0.000662
00538	12618517	-0.313715	9.811885	0.087674	-0.003451	-0.000895	-0.001141
00539	12618567	-0.304682	9.825785	0.100474	-0.000819	0.001092	-0.000498
00540	12618617	-0.301728	9.820091	0.103358	-0.002443	0.002809	-0.000420
00541	12618667	-0.328223	9.835034	0.112882	-0.003579	0.002139	-0.002979
00542	12618717	-0.298371	9.819050	0.096497	-0.004035	0.000388	-0.001939
00543	12618767	-0.301742	9.801805	0.104585	-0.001083	0.002187	-0.000456
00544	12618817	-0.308502	9.806263	0.102045	-0.003578	0.000139	-0.000782
00545	12618867	-0.277755	9.804970	0.103117	-0.006510	-0.001464	-0.002452
00546	12618917	-0.313097	9.807165	0.117237	-0.004990	0.001410	-0.000515
00547	12618967	-0.312005	9.821731	0.096010	-0.000612	0.002421	-0.001579
00548	12619017	-0.312597	9.837835	0.081963	-0.004961	-0.000627	-0.000587
00549	12619067	-0.324971	9.824380	0.082600	0.000113	-0.000084	0.000456
00550	12619117	-0.316271	9.824536	0.110718	-0.003336	-0.000864	-0.004920
00551	12619167	-0.313516	9.828985	0.101480	-0.000414	0.001420	-0.000428
00552	12619217	-0.296872	9.835023	0.092486	-0.006583	0.003216	-0.001367
00553	12619267	-0.309281	9.821956	0.083408	-0.005888	0.002290	-0.002657
00554	12619317	-0.298484	9.821361	0.100322	-0.005189	0.001201	-0.003656
00555	12619367	-0.308724	9.827756	0.092673	-0.002909	-0.000821	-0.002071
00556	12619417	-0.308713	9.834603	0.094890	-0.005034	-0.002369	0.000550
00557	12619467	-0.316860	9.833582	0.093219	-0.004455	0.002705	0.000037
00558	12619517	-0.316909	9.807635	0.113742	-0.001413	-0.000399	-0.000598
00559	12619567	-0.297933	9.820238	0.096622	-0.000772	0.000343	-0.002842
00560	12619617	-0.287437	9.817544	0.110819	-0.004939	0.002957	0.000422
00561	12619667	-0.317909	9.826396	0.127741	-0.004642	0.001577	-0.001318
00562	12619717	-0.320034	9.824709	0.096375	-0.006633	0.004501	-0.003538
00563	12619767	-0.314460	9.828634	0.108429	-0.007330	-0.003538	0.000811
00564	12619817	-0.320301	9.824340	0.120330	-0.003790	0.002646	-0.003300
00565	12619867	-0.300287	9.822888	0.091599	-0.000974	-0.003102	0.001505
00566	12619917	-0.297881	9.806863	0.118113	-0.005573	-0.001617	-0.002578
00567	12619967	-0.305353	9.815654	0.110829	-0.001608	0.004812	-0.001363
00568	12620017	-0.316183	9.826239	0.107902	0.002826	0.003088	-0.001705
00569	12620067	-0.309341	9.802460	0.102041	-0.003192	-0.001891	-0.000244
00570	12620117	-0.285409	9.818135	0.120174	-0.004011	0.003900	-0.000788
00571	12620167	-0.296375	9.819647	0.105603	-0.004673	0.002466	-0.003456
00572	12620217	-0.327353	9.824121	0.113954	-0.006349	0.000958	0.000010
00573	12620267	-0.313838	9.814509	0.116924	-0.004529	-0.000943	0.001143
00574	12620317	-0.294078	9.817010	0.108984	-0.005735	0.002937	0.001615
00575	12620367	-0.309741	9.814883	0.126916	-0.002830	-0.000313	-0.003442
00576	12620417	-0.314507	9.851593	0.096221	-0.001557	-0.002061	-0.002170
00577	12620467	-0.316709	9.839729	0.094363	-0.003387	0.000332	-0.000995
00578	12620517	-0.295143	9.814219	0.089238	-0.003873	0.001486	-0.000674
00579	12620567	-0.280525	9.796290	0.109900	-0.004051	0.001091	-0.000485
00580	12620617	-0.274141	9.800773	0.101161	-0.002284	0.000670	-0.001808
00581	12620667	-0.296014	9.840694	0.094804	-0.005608	-0.001194	-0.000104
00582	12620717	-0.308930	9.829257	0.087454	-0.005207	0.006397	-0.001730
00583	12620767	-0.320509	9.823515	0.112340	-0.002056	-0.000487	-0.003091
00584	12620817	-0.303193	9.820265	0.106335	-0.004584	0.001665	-0.001407
00585	12620867	-0.300775	9.850721	0.117538	-0.002671	0.002088	-0.000095
00586	12620917	-0.312812	9.826597	0.102804	-0.005452	0.004909	-0.001417
00587	12620967	-0.319574	9.817512	0.102291	-0.002503	0.003866	-0.001043
00588	12621017	-0.304291	9.813169	0.104027	-0.007877	-0.000200	-0.000927
00589	12621067	-0.310371	9.820955	0.102072	-0.006378	0.000596	-0.002174
00590	12621117	-0.277384	9.802212	0.113226	-0.008061	0.004242	-0.005521
00591	12621167	-0.297528	9.826416	0.111878	-0.006659	0.001988	0.002160
00592	12621217	-0.320417	9.833791	0.091878	-0.004843	0.001983	-0.000215
00593	12621267	-0.315441	9.825444	0.114079	-0.004049	0.003094	-0.000694
00594	12621317	-0.306053	9.813873	0.103067	-0.006194	0.000822	-0.004450
00595	12621367	-0.302920	9.808074	0.112272	-0.000614	0.003505	-0.003553
00596	12621417	-0.296577	9.815831	0.106973	-0.002618	0.001014	-0.004652
00597	12621467	-0.289346	9.803240	0.098057	-0.002528	0.000314	-0.000780
00598	12621517	-0.295494	9.807347	0.088100	-0.002935	0.001314	0.001051
00599	12621567	-0.317613	9.811230	0.111121	-0.002436	0.004967	0.001842
00600	12621617	-0.301828	9.820220	0.110384	-0.003476	0.001040	-0.001863
00601	12621667	-0.317863	9.829767	0.109076	-0.004787	0.002275	-0.001083
00602	12621717	-0.312062	9.826032	0.109983	-0.003985	0.004292	-0.000367
00603	12621767	-0.300216	9.827941	0.102920	-0.002334	0.002379	-0.002144
00604	12621817	-0.313283	9.831315	0.104690	-0.003587	0.000848	0.001057
00605	12621867	-0.321774	9.840497	0.102326	-0.005027	0.000491	-0.001024
00606	12621917	-0.308295	9.808491	0.096486	-0.003745	0.001352	-0.003560
00607	12621967	-0.301367	9.812284	0.086456	-0.003465	0.004783	-0.002512
00608	12622017	-0.307244	9.826523	0.097122	-0.009201	-0.002872	0.000410
00609	12622067	-0.296068	9.809153	0.094037	-0.003333	0.000750	-0.001030
00610	12622117	-0.305996	9.813514	0.110657	-0.001343	-0.001502	-0.000312
00611	12622167	-0.308768	9.829128	0.111321	-0.001781	-0.000828	0.001777
00612	12622217	-0.315286	9.813791	0.116743	-0.004654	0.001083	-0.000767
00613	12622267	-0.313823	9.828364	0.110968	-0.002886	0.002698	-0.001598
00614	12622317	-0.312678	9.830888	0.101947	0.001605	-0.000107	-0.004410
00615	12622367	-0.327715	9.846509	0.092191	-0.007953	0.003254	-0.000074
00616	12622417	-0.309017	9.826706	0.114805	-0.005625	0.003622	0.001333
00617	12622467	-0.306850	9.799630	0.087440	-0.005479	0.000551	-0.000897
00618	12622517	-0.304704	9.817221	0.086958	-0.006274	-0.000300	0.000606
00619	12622567	-0.320722	9.816656	0.110488	-0.004645	-0.001300	0.001819
00620	12622617	-0.298504	9.813539	0.084425	-0.001562	-0.000963	-0.001783
00621	12622667	-0.275380	9.793028	0.094526	-0.004862	0.001467	-0.000638
00622	12622717	-0.311378	9.825984	0.097773	-0.003425	0.002389	-0.003874
00623	12622767	-0.312147	9.832726	0.105906	-0.005836	0.003032	0.000881
00624	12622817	-0.308374	9.842766	0.120023	-0.003965	0.000284	-0.003305
00625	12622867	-0.303914	9.817798	0.111894	-0.005987	0.000608	-0.000353
00626	12622917	-0.285423	9.828566	0.105072	-0.006302	0.003572	-0.001394
00627	12622967	-0.310441	9.820926	0.103463	-0.002538	-0.001568	-0.003478
00628	12623017	-0.294248	9.811067	0.109620	-0.004093	0.005712	0.000662
00629	12623067	-0.302044	9.810874	0.115976	-0.005804	-0.001330	-0.001803
00630	12623117	-0.311427	9.834227	0.117125	-0.004398	-0.001442	-0.006071
00631	12623167	-0.311705	9.827819	0.117438	-0.006291	0.000922	-0.001500
00632	12623217	-0.302333	9.800732	0.111739	-0.000752	-0.000372	-0.002870
00633	12623267	-0.299362	9.815031	0.110081	-0.002819	0.003599	-0.002076
00634	12623317	-0.306655	9.811983	0.101792	-0.002603	0.000662	-0.003466
00635	12623367	-0.324416	9.829950	0.122187	-0.002021	0.000543	-0.003244
00636	12623417	-0.304754	9.835051	0.115198	-0.002715	0.000014	-0.005077
00637	12623467	-0.320987	9.832747	0.112892	-0.002553	0.000319	0.000283
00638	12623517	-0.299833	9.819070	0.093926	-0.007255	0.003228	-0.002385
00639	12623567	-0.309751	9.809330	0.102339	-0.005538	-0.001711	-0.002481
00640	12623617	-0.307042	9.822056	0.109152	-0.000162	0.003682	0.000231
00641	12623667	-0.317300	9.825192	0.098029	-0.003207	0.003591	-0.002965
00642	12623717	-0.305518	9.816742	0.101794	-0.005827	0.000741	-0.000478
00643	12623767	-0.315569	9.826083	0.087544	-0.005230	0.001942	-0.002041
00644	12623817	-0.308780	9.823995	0.106034	-0.002120	0.001580	-0.002758
00645	12623867	-0.320214	9.820422	0.096983	-0.000536	0.001518	0.003004
00646	12623917	-0.311499	9.837057	0.102826	-0.005620	0.002162	-0.001173
00647	12623967	-0.291103	9.800656	0.110737	0.001661	0.001323	-0.001620
00648	12624017	-0.316217	9.843035	0.111231	-0.005012	0.002008	-0.003867
00649	12624067	-0.315064	9.841692	0.091545	-0.004311	-0.000045	-0.001957
00650	12624117	-0.295927	9.833564	0.095826	-0.007132	0.002456	-0.001782
00651	12624167	-0.309446	9.827189	0.098478	-0.005879	0.001254	-0.001694
00652	12624217	-0.300077	9.823385	0.105777	-0.002269	0.002711	0.001638
00653	12624267	-0.316847	9.819588	0.108762	-0.001246	-0.000859	-0.003033
00654	12624317	-0.315824	9.820360	0.104980	-0.003525	-0.001512	-0.001648
00655	12624367	-0.304201	9.807647	0.108419	-0.000373	-0.000940	-0.000340
00656	12624417	-0.300405	9.806414	0.099266	-0.000728	0.003181	-0.001927
00657	12624467	-0.287911	9.798579	0.093593	-0.003319	0.003043	-0.001883
00658	12624517	-0.308405	9.827441	0.082581	-0.001565	-0.000771	-0.002834
00659	12624567	-0.307484	9.836895	0.101299	-0.003998	0.001086	-0.004391
00660	12624617	-0.312956	9.814863	0.110119	-0.007751	0.003836	-0.001514
00661	12624667	-0.304827	9.823057	0.108038	-0.005573	0.002008	0.001580
00662	12624717	-0.284466	9.824339	0.103361	-0.003743	0.000320	-0.002699
00663	12624767	-0.318846	9.847285	0.126011	-0.003509	0.001525	0.001443
00664	12624817	-0.321746	9.848643	0.112395	-0.005672	0.003871	-0.001551
00665	12624867	-0.312577	9.817657	0.113592	-0.005416	0.003649	-0.003155
00666	12624917	-0.309821	9.811482	0.101452	-0.007207	0.001386	-0.004636
00667	12624967	-0.320801	9.794455	0.103866	-0.004675	0.001337	-0.002847
00668	12625017	-0.298851	9.811309	0.105693	-0.007098	0.001097	-0.004705
00669	12625067	-0.305678	9.829130	0.098456	-0.003985	0.000732	-0.003334
00670	12625117	-0.302918	9.810454	0.080698	-0.003834	0.003357	-0.000244
00671	12625167	-0.302968	9.822745	0.099373	-0.003237	0.003657	-0.001143
00672	12625217	-0.316925	9.837523	0.098923	-0.011023	0.002264	0.001627
00673	12625267	-0.292806	9.808584	0.118389	-0.006899	0.001343	0.002795
00674	12625317	-0.312609	9.813487	0.107612	-0.003526	0.001650	-0.000800
00675	12625367	-0.298253	9.802629	0.099540	-0.002032	0.001635	-0.004619
00676	12625417	-0.303099	9.808821	0.109891	-0.002879	0.003436	-0.001944
00677	12625467	-0.311533	9.821640	0.086755	-0.005677	0.004867	-0.004268
00678	12625517	-0.295274	9.808653	0.112056	-0.003620	0.002618	-0.001278
00679	12625567	-0.301346	9.809299	0.095741	-0.002157	0.001808	-0.000289
00680	12625617	-0.308726	9.812384	0.089508	-0.000633	0.001185	-0.000811
00681	12625667	-0.312788	9.806611	0.107165	-0.005481	0.001846	-0.000728
00682	12625717	-0.304328	9.824834	0.085421	-0.002608	-0.000335	-0.001962
00683	12625767	-0.302928	9.822616	0.092234	-0.005703	-0.001425	-0.002029
00684	12625817	-0.302687	9.831444	0.104730	-0.006474	0.003824	-0.002094
00685	12625867	-0.300014	9.817060	0.116228	-0.006502	0.004221	0.002844
00686	12625917	-0.284894	9.814720	0.095705	-0.004574	0.000945	-0.005511
00687	12625967	-0.308790	9.799558	0.090271	-0.002529	0.004672	-0.000723
00688	12626017	-0.288133	9.817357	0.106789	-0.005335	0.002494	0.001260
00689	12626067	-0.297840	9.813225	0.105770	-0.002896	-0.001047	-0.000659
00690	12626117	-0.295214	9.821033	0.093259	-0.002257	-0.001033	0.001394
00691	12626167	-0.300036	9.815734	0.094549	-0.001884	0.002354	-0.001219
00692	12626217	-0.292996	9.822904	0.112469	-0.003447	0.004365	-0.000658
00693	12626267	-0.287347	9.814078	0.105042	-0.003868	0.002554	0.000647
00694	12626317	-0.312907	9.828317	0.115028	-0.005410	0.002620	-0.001241
00695	12626367	-0.303387	9.811744	0.104702	-0.005019	0.003137	-0.003958
00696	12626417	-0.305391	9.809358	0.088904	-0.007069	0.001263	-0.002812
00697	12626467	-0.303171	9.822495	0.100083	-0.004587	0.005055	0.000021
00698	12626517	-0.308027	9.826131	0.106121	-0.003635	0.004362	0.000465
00699	12626567	-0.304950	9.800520	0.123864	-0.004061	0.002484	-0.000861
00700	12626617	-0.301473	9.816778	0.102762	-0.004600	-0.001888	-0.001103
00701	12626667	-0.303457	9.815575	0.117788	-0.001690	0.001134	-0.001417
00702	12626717	-0.299850	9.820415	0.099208	-0.006545	0.001950	-0.002328
00703	12626767	-0.313139	9.828668	0.091735	-0.003807	0.001685	0.000583
00704	12626817	-0.317233	9.827585	0.112020	-0.001015	-0.002083	-0.002492
00705	12626867	-0.324646	9.833550	0.104212	-0.001312	0.000927	0.004417
00706	12626917	-0.318231	9.831535	0.101416	-0.005034	0.001214	0.003466
00707	12626967	-0.314519	9.833686	0.103480	-0.003319	0.001203	-0.001538
00708	12627017	-0.311315	9.823935	0.092494	-0.004633	0.000047	-0.002566
00709	12627067	-0.309063	9.816003	0.100700	-0.006478	0.000021	0.001219
00710	12627117	-0.306498	9.815312	0.101300	-0.003590	0.000548	-0.002725
00711	12627167	-0.321290	9.802764	0.103529	-0.004043	0.001936	-0.000413
00712	12627217	-0.300804	9.815237	0.110596	-0.001036	0.001860	-0.001509
00713	12627267	-0.294858	9.817372	0.100292	-0.003960	0.003185	-0.002876
00714	12627317	-0.305655	9.832850	0.103244	-0.002790	0.002797	-0.000058
00715	12627367	-0.320898	9.825327	0.101878	-0.004467	-0.003211	-0.002424
00716	12627417	-0.306022	9.813186	0.101453	-0.001384	0.002459	-0.004228
00717	12627467	-0.301217	9.828367	0.089231	-0.001986	-0.001123	0.003220
00718	12627517	-0.309808	9.819791	0.115953	-0.003175	0.001117	0.004008
00719	12627567	-0.293544	9.840863	0.101002	-0.003774	0.001091	-0.003813
00720	12627617	-0.297109	9.816355	0.103011	-0.005560	-0.000767	0.001530
00721	12627667	-0.311597	9.835255	0.111620	-0.002307	0.003511	-0.002620
00722	12627717	-0.302846	9.825192	0.109823	-0.000666	-0.001979	-0.001406
00723	12627767	-0.308900	9.827019	0.109601	-0.006356	0.002643	0.002996
00724	12627817	-0.301358	9.830416	0.095694	-0.001556	0.004207	-0.000151
00725	12627867	-0.297524	9.823417	0.106337	-0.005890	0.002575	-0.001846
00726	12627917	-0.314595	9.827103	0.115267	-0.004098	0.000348	-0.003529
00727	12627967	-0.310047	9.834157	0.107092	-0.003917	-0.002290	-0.001331
00728	12628017	-0.303529	9.828009	0.095757	-0.002701	-0.001208	-0.001203
00729	12628067	-0.295491	9.818089	0.099368	-0.004634	0.001276	-0.001151
00730	12628117	-0.312372	9.816928	0.099930	-0.005139	0.000139	0.001054
00731	12628167	-0.295215	9.809669	0.107200	-0.000973	0.002921	-0.001185
00732	12628217	-0.309874	9.808743	0.109468	-0.002656	0.001146	-0.004454
00733	12628267	-0.300590	9.822638	0.108438	-0.002611	0.001054	-0.001510
00734	12628317	-0.293234	9.806197	0.103425	-0.003963	0.001484	0.000992
00735	12628367	-0.321666	9.822742	0.115302	-0.003943	-0.001393	-0.002288
00736	12628417	-0.293088	9.817682	0.112762	-0.004692	-0.002818	0.001840
00737	12628467	-0.320574	9.830398	0.112166	-0.003899	0.001256	-0.001279
00738	12628517	-0.316089	9.823316	0.097503	-0.001950	0.001421	-0.000612
00739	12628567	-0.311908	9.818001	0.092029	-0.004910	0.000917	-0.002050
00740	12628617	-0.303576	9.819184	0.099176	-0.005010	0.000075	0.000352
00741	12628667	-0.288636	9.821026	0.099295	-0.004316	0.002409	-0.000763
00742	12628717	-0.313382	9.826928	0.112140	-0.004224	0.001542	-0.001725
00743	12628767	-0.306267	9.830128	0.110375	-0.003523	0.001354	-0.003686
00744	12628817	-0.296611	9.802261	0.109748	0.001302	0.003608	-0.002661
00745	12628867	-0.328886	9.814912	0.093815	-0.005901	0.002265	0.003246
00746	12628917	-0.303081	9.807112	0.113568	-0.006526	0.000502	-0.000445
00747	12628967	-0.303188	9.805577	0.104598	-0.001258	0.001918	-0.000739
00748	12629017	-0.313846	9.815862	0.106106	-0.001744	0.005169	-0.001267
00749	12629067	-0.316019	9.838080	0.094027	-0.006630	-0.000472	-0.001442
00750	12629117	-0.283897	9.812471	0.104372	-0.006830	-0.000416	-0.004297
00751	12629167	-0.316100	9.844999	0.107359	-0.003822	-0.002196	-0.001106
00752	12629217	-0.302738	9.822046	0.114002	-0.003459	0.000817	0.001471
00753	12629267	-0.305564	9.811511	0.102524	-0.004803	0.001895	0.002857
00754	12629317	-0.302699	9.822931	0.102962	-0.003335	-0.005314	0.001248
00755	12629367	-0.313596	9.817721	0.093740	-0.007635	-0.000002	-0.000861
00756	12629417	-0.302695	9.833624	0.101984	-0.003797	0.002062	-0.002307
00757	12629467	-0.302274	9.802873	0.096239	-0.004315	0.000150	-0.002473
00758	12629517	-0.306809	9.825002	0.088072	-0.000440	-0.000014	-0.003603
00759	12629567	-0.299145	9.808113	0.112976	-0.002336	0.001083	-0.005002
00760	12629617	-0.320489	9.824271	0.093672	-0.002454	0.001419	0.001409
00761	12629667	-0.309025	9.829022	0.102584	-0.006095	-0.001106	-0.001383
00762	12629717	-0.316737	9.838573	0.092557	-0.005814	0.001155	-0.002495
00763	12629767	-0.302261	9.833948	0.111880	-0.005344	-0.000446	-0.000645
00764	12629817	-0.303329	9.825724	0.105761	-0.001403	0.004231	-0.003903
00765	12629867	-0.296249	9.812881	0.098361	-0.004339	0.001825	-0.004228
00766	12629917	-0.304806	9.798095	0.095666	0.001469	0.003391	-0.003115
00767	12629967	-0.307300	9.822752	0.110681	-0.003413	0.000340	-0.000103
00768	12630017	-0.297500	9.810415	0.119131	-0.006215	-0.000397	-0.003374
00769	12630067	-0.311734	9.813769	0.089578	-0.005354	0.001019	0.001638
00770	12630117	-0.311323	9.839023	0.114246	-0.003533	0.001015	-0.000485
00771	12630167	-0.298892	9.816566	0.103535	-0.008658	-0.000147	-0.002272
00772	12630217	-0.314060	9.832964	0.104851	-0.008831	0.003631	-0.000614
00773	12630267	-0.302915	9.822418	0.089519	-0.005382	-0.001540	-0.002030
00774	12630317	-0.298409	9.819976	0.097669	-0.004486	0.001539	-0.001118
00775	12630367	-0.308154	9.816406	0.106215	-0.007749	0.000747	-0.001145
00776	12630417	-0.294344	9.806902	0.087051	-0.002553	0.000256	-0.000652
00777	12630467	-0.294356	9.799036	0.105526	-0.002109	-0.001998	-0.002687
00778	12630517	-0.308572	9.818439	0.096976	-0.001678	0.001014	-0.000202
00779	12630567	-0.307340	9.810659	0.110398	-0.003500	0.004114	0.000011
00780	12630617	-0.302422	9.807885	0.109568	-0.002787	0.003439	-0.003841
00781	12630667	-0.303801	9.813930	0.101120	-0.005618	0.002205	0.001033
00782	12630717	-0.292144	9.823204	0.093285	-0.002160	0.004070	-0.000023
00783	12630767	-0.311362	9.801788	0.097296	-0.006377	0.000340	-0.005224
00784	12630817	-0.321540	9.831546	0.082480	-0.004964	0.000598	-0.000930
00785	12630867	-0.316569	9.824754	0.096545	-0.002874	-0.002885	-0.001112
00786	12630917	-0.328800	9.819050	0.086995	-0.001511	0.000530	-0.000653
00787	12630967	-0.329528	9.833810	0.099063	-0.005709	0.002036	-0.001240
00788	12631017	-0.312994	9.812622	0.101268	-0.000644	0.000744	0.002041
00789	12631067	-0.294738	9.814615	0.094541	-0.004039	0.003777	-0.000983
00790	12631117	-0.316060	9.817986	0.104874	-0.001712	0.001813	-0.002827
00791	12631167	-0.301924	9.820773	0.104862	-0.003010	-0.000457	0.000881
00792	12631217	-0.301782	9.813930	0.102577	-0.006261	-0.000241	-0.004522
00793	12631267	-0.297063	9.823760	0.100038	-0.003219	0.001983	-0.002339
00794	12631317	-0.306437	9.831110	0.107525	-0.002732	0.000764	-0.002280
00795	12631367	-0.307963	9.822204	0.099466	-0.006721	0.002601	-0.001528
00796	12631417	-0.294536	9.817340	0.102954	-0.003869	-0.000671	-0.000428
00797	12631467	-0.297479	9.814371	0.108230	-0.003763	0.002939	-0.003102
00798	12631517	-0.308865	9.816785	0.142804	-0.003766	0.004397	-0.001714
00799	12631567	-0.302353	9.798068	0.115657	-0.003804	0.002097	-0.005095
00800	12631617	-0.301382	9.805300	0.108948	-0.004866	0.000536	-0.001091
00801	12631667	-0.314314	9.808145	0.114078	-0.004548	0.003411	-0.004088
00802	12631717	-0.292829	9.814341	0.098903	-0.006630	0.000700	-0.000481
00803	12631767	-0.297748	9.820654	0.116111	-0.002531	0.003674	-0.001375
00804	12631817	-0.306379	9.818528	0.093046	-0.008738	0.000826	0.001834
00805	12631867	-0.305767	9.822571	0.108728	-0.004101	-0.000119	0.003583
00806	12631917	-0.292781	9.823277	0.104273	-0.009102	-0.002317	-0.001932
00807	12631967	-0.294054	9.817167	0.099311	-0.003612	-0.001764	0.000074
00808	12632017	-0.304589	9.818617	0.103910	-0.002115	-0.003648	-0.001348
00809	12632067	-0.305127	9.823016	0.095374	-0.006995	0.000881	-0.004195
00810	12632117	-0.310643	9.819221	0.106361	-0.003829	0.000905	-0.003177
00811	12632167	-0.301439	9.815068	0.106275	-0.002629	0.002705	-0.001088
00812	12632217	-0.282690	9.824731	0.109836	-0.004457	0.001069	0.003872
00813	12632267	-0.306479	9.832313	0.106906	-0.005840	0.004102	-0.002158
00814	12632317	-0.320691	9.829512	0.107782	-0.003011	0.003637	-0.001337
00815	12632367	-0.312071	9.807707	0.113621	-0.005846	-0.003736	0.001739
00816	12632417	-0.311607	9.815027	0.115989	-0.005444	0.003590	-0.002773
00817	12632467	-0.311398	9.828801	0.100028	-0.001456	0.001822	-0.001962
00818	12632517	-0.306623	9.809452	0.097008	-0.002889	-0.003402	-0.001188
00819	12632567	-0.296476	9.816989	0.108489	-0.004346	-0.002004	-0.002072
00820	12632617	-0.303274	9.823634	0.102968	-0.005569	0.002588	-0.002141
00821	12632667	-0.312810	9.808480	0.108746	-0.002838	-0.000911	0.000211
00822	12632717	-0.308937	9.824896	0.109002	-0.004891	0.002574	0.001545
00823	12632767	-0.303664	9.822922	0.087098	-0.000914	-0.000271	-0.003029
00824	12632817	-0.291998	9.819208	0.106572	-0.004510	-0.000650	-0.000878
00825	12632867	-0.294398	9.826018	0.093743	-0.000999	-0.000528	-0.001430
00826	12632917	-0.308667	9.822561	0.091241	-0.006542	0.001923	-0.001751
00827	12632967	-0.299930	9.825067	0.104947	-0.004869	0.000471	-0.001734
00828	12633017	-0.301702	9.820102	0.102241	-0.003253	0.005675	0.002775
00829	12633067	-0.310691	9.823659	0.110640	-0.000707	0.000474	-0.002933
00830	12633117	-0.297935	9.810610	0.105708	0.000715	-0.001278	-0.004227
00831	12633167	-0.295192	9.812205	0.127975	-0.006787	-0.000501	-0.002152
00832	12633217	-0.289230	9.823097	0.118484	-0.005528	0.001331	-0.001439
00833	12633267	-0.307149	9.812860	0.106158	-0.003507	0.003241	-0.001208
00834	12633317	-0.294449	9.817927	0.095461	-0.004297	0.002037	0.001764
00835	12633367	-0.290108	9.836788	0.091205	-0.004832	0.002042	-0.005861
00836	12633417	-0.328091	9.849854	0.105666	-0.003384	0.002372	-0.000863
00837	12633467	-0.320013	9.847534	0.108997	-0.002335	0.000256	-0.002220
00838	12633517	-0.314973	9.816386	0.117409	-0.002960	0.002892	-0.003423
00839	12633567	-0.315277	9.833563	0.095114	-0.003067	0.001114	-0.002377
00840	12633617	-0.301843	9.825362	0.114890	-0.001740	-0.002248	-0.000702
00841	12633667	-0.304284	9.818671	0.100765	-0.002851	0.001971	0.003205
00842	12633717	-0.308597	9.838774	0.101794	-0.004806	-0.000041	0.001691
00843	12633767	-0.305407	9.823410	0.100789	-0.002124	0.000746	-0.002346
00844	12633817	-0.294169	9.793856	0.087850	-0.003649	0.003692	-0.000341
00845	12633867	-0.310141	9.815644	0.123380	-0.004050	0.003166	-0.001464
00846	12633917	-0.294242	9.820578	0.077244	-0.002923	0.001729	-0.002024
00847	12633967	-0.315022	9.818246	0.120010	-0.002549	-0.000172	-0.003473
00848	12634017	-0.290325	9.826941	0.114405	-0.005106	0.000755	-0.003207
00849	12634067	-0.311731	9.834414	0.104928	-0.003500	0.000849	-0.001737
00850	12634117	-0.299898	9.822555	0.129802	-0.003434	0.002553	-0.004514
00851	12634167	-0.321115	9.842275	0.110452	-0.001919	0.003658	-0.001110
00852	12634217	-0.301389	9.811082	0.103161	-0.001384	0.004928	-0.000020
00853	12634267	-0.292689	9.807374	0.088508	-0.004213	0.002356	0.000450
00854	12634317	-0.315739	9.800356	0.110118	-0.008090	0.000811	0.003248
00855	12634367	-0.298625	9.823188	0.104095	-0.001308	-0.001492	0.002089
00856	12634417	-0.303716	9.821467	0.119990	-0.004084	0.003296	0.000010
00857	12634467	-0.298684	9.828023	0.083631	-0.006258	0.001927	-0.003295
00858	12634517	-0.307541	9.829197	0.107727	-0.004271	0.000197	0.001984
00859	12634567	-0.308578	9.816428	0.089099	-0.002514	-0.000099	-0.002163
00860	12634617	-0.315615	9.835848	0.116479	-0.005782	-0.001867	-0.000556
00861	12634667	-0.308812	9.806607	0.110202	-0.001764	0.001462	-0.002954
00862	12634717	-0.304403	9.810308	0.120016	-0.005129	0.000722	-0.001669
00863	12634767	-0.293870	9.827426	0.095488	-0.004307	0.000325	0.002622
00864	12634817	-0.292741	9.806570	0.095498	-0.003158	-0.000919	-0.001302
00865	12634867	-0.310741	9.812834	0.104884	-0.003443	0.003143	-0.001501
00866	12634917	-0.312450	9.817817	0.103778	-0.004576	0.002643	-0.001179
00867	12634967	-0.332144	9.814272	0.086783	-0.002691	0.002248	-0.003136
00868	12635017	-0.303336	9.818646	0.088150	-0.004663	-0.001979	-0.001075
00869	12635067	-0.304049	9.813838	0.091425	-0.003354	0.000074	-0.003186
00870	12635117	-0.308964	9.842000	0.122633	-0.004390	0.005037	0.002135
00871	12635167	-0.310231	9.836008	0.094893	-0.003515	0.000436	0.000794
00872	12635217	-0.304696	9.836157	0.120437	-0.003953	0.003067	-0.001916
00873	12635267	-0.322326	9.836792	0.080310	-0.004761	-0.001884	-0.001554
00874	12635317	-0.300629	9.800341	0.123363	-0.003712	0.001790	0.002051
00875	12635367	-0.305785	9.811487	0.072807	-0.005309	-0.000730	-0.000589
00876	12635417	-0.298825	9.807473	0.108511	-0.004905	0.001567	-0.002949
00877	12635467	-0.288685	9.813476	0.081345	-0.006094	-0.001228	-0.001452
00878	12635517	-0.311185	9.821961	0.112805	-0.003781	0.001549	-0.003463
00879	12635567	-0.304496	9.812099	0.111875	-0.005376	0.001758	0.000712
00880	12635617	-0.327231	9.827668	0.130120	-0.002570	-0.000130	0.000468
00881	12635667	-0.304087	9.837862	0.102977	-0.003532	0.002950	-0.001115
00882	12635717	-0.308693	9.816643	0.105794	0.000048	-0.000153	-0.002520
00883	12635767	-0.308293	9.827149	0.101338	-0.004714	-0.001369	-0.002674
00884	12635817	-0.314719	9.833632	0.122492	-0.005493	0.000104	-0.002281
00885	12635867	-0.317456	9.833040	0.112510	-0.007622	0.002712	-0.001361
00886	12635917	-0.313971	9.816478	0.112155	-0.005764	-0.001452	-0.001775
00887	12635967	-0.307792	9.803172	0.102910	-0.001047	0.001021	-0.002834
00888	12636017	-0.314428	9.812371	0.116728	-0.004116	0.001930	-0.003940
00889	12636067	-0.308171	9.803802	0.093170	-0.004724	0.000954	-0.002342
00890	12636117	-0.304346	9.818191	0.101318	-0.003875	0.001489	-0.002053
00891	12636167	-0.303090	9.828368	0.103950	-0.005304	0.002272	-0.000377
00892	12636217	-0.302767	9.827140	0.106712	-0.001491	0.004215	-0.000120
00893	12636267	-0.305052	9.828904	0.113761	-0.003578	-0.001093	-0.003089
00894	12636317	-0.300819	9.820600	0.101764	-0.002846	0.003412	-0.001531
00895	12636367	-0.291320	9.802886	0.103900	-0.002650	0.006451	-0.000876
00896	12636417	-0.310723	9.812582	0.106161	-0.005428	0.001074	-0.001282
00897	12636467	-0.282286	9.794393	0.123938	-0.005063	0.002692	-0.002366
00898	12636517	-0.300375	9.808639	0.093375	-0.003652	0.001557	-0.000930
00899	12636567	-0.306094	9.821137	0.109003	-0.004758	0.001152	-0.001410
00900	12636617	-0.304369	9.809819	0.089980	-0.001172	0.001183	0.000281
00901	12636667	-0.304693	9.804905	0.116835	-0.002249	0.001941	0.000672
00902	12636717	-0.307073	9.806400	0.078493	-0.000977	0.000092	0.001745
00903	12636767	-0.315968	9.829744	0.112142	-0.004504	-0.000910	-0.001003
00904	12636817	-0.310296	9.831109	0.088855	-0.002836	0.003583	0.003982
00905	12636867	-0.303149	9.816664	0.109414	-0.003458	0.001631	-0.000157
00906	12636917	-0.329634	9.839439	0.118968	-0.005779	-0.002897	0.000944
00907	12636967	-0.315827	9.824169	0.104194	-0.003548	0.006793	0.000732
00908	12637017	-0.301992	9.826525	0.101329	-0.006618	0.001609	0.002573
00909	12637067	-0.288000	9.807392	0.091758	-0.008163	-0.000722	-0.003079
00910	12637117	-0.301941	9.821240	0.089773	-0.004695	0.000149	-0.001254
00911	12637167	-0.300889	9.817942	0.119971	-0.004796	0.004409	-0.001745
00912	12637217	-0.303679	9.819540	0.106330	-0.002469	0.003580	-0.002972
00913	12637267	-0.312289	9.833026	0.117155	-0.004518	0.001543	-0.001790
00914	12637317	-0.318017	9.844859	0.099201	-0.003152	0.000825	-0.003049
00915	12637367	-0.309250	9.818285	0.106151	-0.004710	0.000209	-0.006060
00916	12637417	-0.310237	9.823287	0.089114	-0.004896	0.000572	0.000861
00917	12637467	-0.288704	9.813712	0.112266	-0.004193	0.001580	-0.001026
00918	12637517	-0.292045	9.794897	0.098618	-0.005943	0.001395	0.002120
00919	12637567	-0.312022	9.796396	0.124151	-0.003570	0.000147	0.000726
00920	12637617	-0.302685	9.819683	0.097884	-0.001932	0.001910	-0.001605
00921	12637667	-0.289536	9.812099	0.092314	-0.002895	0.001632	-0.003178
00922	12637717	-0.294840	9.815027	0.098767	-0.000647	-0.001688	-0.003393
00923	12637767	-0.308100	9.808378	0.103989	-0.003926	0.002035	-0.002979
00924	12637817	-0.294903	9.811895	0.117112	-0.006086	0.001512	-0.002594
00925	12637867	-0.303501	9.826306	0.098585	-0.000917	0.000928	-0.002096
00926	12637917	-0.301641	9.817631	0.109133	-0.001392	0.002623	-0.004810
00927	12637967	-0.295260	9.824963	0.115693	-0.005727	0.004489	-0.001934
00928	12638017	-0.299354	9.823224	0.101937	-0.003448	0.000436	0.001052
00929	12638067	-0.306049	9.811330	0.114029	-0.003953	0.002006	-0.001507
00930	12638117	-0.314391	9.812901	0.081633	-0.003408	0.000015	0.000248
00931	12638167	-0.303586	9.812851	0.094135	-0.004158	0.001226	-0.003334
00932	12638217	-0.301139	9.831865	0.108897	-0.002883	-0.003460	0.000805
00933	12638267	-0.306802	9.804666	0.099370	-0.002180	0.000419	-0.001969
00934	12638317	-0.290205	9.815078	0.099151	-0.006932	-0.001792	0.000631
00935	12638367	-0.290687	9.825532	0.113129	-0.001399	0.001243	0.000469
00936	12638417	-0.318905	9.856071	0.109671	-0.003223	0.003442	0.000234
00937	12638467	-0.303547	9.839520	0.118832	-0.004552	0.002571	-0.003037
00938	12638517	-0.299576	9.837822	0.093937	-0.007705	0.003225	-0.003248
00939	12638567	-0.295013	9.812673	0.097405	-0.002970	0.003082	-0.003427
00940	12638617	-0.298152	9.807286	0.090409	-0.001786	0.001173	-0.000939
00941	12638667	-0.301141	9.797285	0.121060	-0.007217	0.002812	-0.003509
00942	12638717	-0.307120	9.818096	0.089798	-0.004876	0.005091	0.000152
00943	12638767	-0.308862	9.826781	0.094497	-0.007803	-0.001544	0.001085
00944	12638817	-0.318824	9.824820	0.090482	-0.007326	-0.000440	0.001021
00945	12638867	-0.293694	9.817043	0.107232	-0.003427	0.002425	-0.003912
00946	12638917	-0.303503	9.820602	0.099131	-0.001457	0.000688	-0.004369
00947	12638967	-0.309146	9.830829	0.077624	-0.005253	0.002594	-0.002778
00948	12639017	-0.306889	9.833681	0.094645	-0.005386	0.001752	-0.001308
00949	12639067	-0.293030	9.827431	0.111096	-0.005304	0.003468	0.000109
00950	12639117	-0.300862	9.821157	0.096143	-0.000111	0.001550	-0.004400
00951	12639167	-0.305729	9.810656	0.096492	-0.002476	0.003605	-0.004831
00952	12639217	-0.328702	9.838626	0.110045	-0.003514	0.000069	-0.002474
00953	12639267	-0.293044	9.810567	0.096686	-0.002881	0.001472	-0.000996
00954	12639317	-0.315410	9.824230	0.116236	-0.005434	0.006694	-0.000191
00955	12639367	-0.291584	9.813413	0.082813	-0.005267	-0.001286	-0.003506
00956	12639417	-0.301318	9.824737	0.110118	-0.003415	0.000145	0.000566
00957	12639467	-0.320035	9.851317	0.094042	-0.006182	0.000542	-0.003363
00958	12639517	-0.291296	9.845753	0.093595	-0.004690	0.001056	-0.000768
00959	12639567	-0.281451	9.833756	0.110249	-0.003998	-0.000513	-0.000496
00960	12639617	-0.318411	9.813869	0.108580	-0.003142	0.001664	-0.001091
00961	12639667	-0.327846	9.820123	0.095245	-0.005586	0.000007	-0.000995
00962	12639717	-0.294971	9.797594	0.090509	-0.003932	0.002298	-0.001118
00963	12639767	-0.292821	9.804930	0.108967	-0.004932	0.000533	-0.001767
00964	12639817	-0.302937	9.824421	0.113766	-0.004377	0.001922	-0.005285
00965	12639867	-0.302679	9.808591	0.094030	-0.001436	0.002410	0.000453
00966	12639917	-0.311308	9.820784	0.112126	-0.003440	0.000982	0.000513
00967	12639967	-0.318365	9.831707	0.105945	-0.003181	0.001725	-0.002590
00968	12640017	-0.300465	9.822759	0.116201	-0.005715	0.002263	-0.000241
00969	12640067	-0.285560	9.808913	0.087275	-0.001813	0.003103	-0.001337
00970	12640117	-0.303704	9.822164	0.105388	-0.005989	0.002640	-0.000974
00971	12640167	-0.319141	9.814593	0.107211	-0.007617	0.002518	-0.002190
00972	12640217	-0.310476	9.812263	0.096498	-0.003271	0.001561	-0.001951
00973	12640267	-0.320210	9.826309	0.100472	-0.006672	-0.000277	-0.002593
00974	12640317	-0.304643	9.804945	0.098483	-0.006435	-0.002529	-0.000492
00975	12640367	-0.307687	9.817708	0.099221	-0.006035	0.002996	-0.002865
00976	12640417	-0.296801	9.821752	0.107295	-0.004681	0.001895	0.000267
00977	12640467	-0.286059	9.822718	0.099341	-0.005750	0.002869	-0.003924
00978	12640517	-0.329553	9.813913	0.112058	-0.007555	0.001750	-0.000301
00979	12640567	-0.337051	9.822767	0.116626	-0.006025	-0.000129	0.001192
00980	12640617	-0.317515	9.812466	0.107992	0.000114	-0.000682	-0.005944
00981	12640667	-0.296574	9.823124	0.095467	-0.002147	-0.003778	-0.002304
00982	12640717	-0.302923	9.833387	0.117163	-0.005257	0.001985	0.001361
00983	12640767	-0.316958	9.832572	0.096797	-0.004974	-0.000279	-0.002471
00984	12640817	-0.305056	9.800467	0.096180	-0.008894	0.001300	-0.001742
00985	12640867	-0.313528	9.802281	0.110229	-0.003162	0.000013	-0.003272
00986	12640917	-0.314995	9.802246	0.127267	-0.005773	-0.000091	-0.000766
00987	12640967	-0.304880	9.812966	0.116508	-0.006544	0.000922	-0.002107
00988	12641017	-0.306401	9.826760	0.097489	-0.003428	-0.002476	-0.000881
00989	12641067	-0.305851	9.822902	0.102313	-0.003719	0.000324	-0.003273
00990	12641117	-0.301179	9.834387	0.115628	-0.002822	0.002304	-0.004961
00991	12641167	-0.306023	9.818463	0.097698	-0.002163	-0.000261	-0.001931
00992	12641217	-0.302630	9.818425	0.102711	-0.002479	-0.003232	-0.000279
00993	12641267	-0.299714	9.826161	0.111307	-0.002423	-0.003166	-0.000887
00994	12641317	-0.312826	9.815561	0.095374	-0.003811	0.004748	-0.000361
00995	12641367	-0.305935	9.836348	0.091748	-0.005770	0.002743	-0.002515
00996	12641417	-0.310117	9.835016	0.113375	-0.005535	0.001293	-0.003448
00997	12641467	-0.300673	9.812303	0.101567	-0.005063	0.001826	0.000715
00998	12641517	-0.308796	9.811172	0.106352	-0.002474	0.000804	-0.000706
00999	12641567	-0.304740	9.815014	0.107032	-0.002740	0.001252	0.000387
01000	12641617	-0.317141	9.823007	0.101858	-0.004943	0.000688	-0.004708
01001	12641667	-0.307366	9.813007	0.096298	-0.004394	0.002868	-0.000783
01002	12641717	-0.304088	9.820923	0.093364	-0.003778	0.005487	-0.003050
01003	12641767	-0.330530	9.832381	0.113701	-0.004396	0.000799	-0.001500
01004	12641817	-0.299493	9.828353	0.092134	-0.002796	0.001564	-0.003745
01005	12641867	-0.308504	9.814975	0.091321	-0.006024	0.001774	-0.000789
01006	12641917	-0.290712	9.798936	0.114704	-0.004882	0.001755	-0.003839
01007	12641967	-0.297189	9.808739	0.089001	-0.001980	0.000067	-0.000839
01008	12642017	-0.310396	9.828644	0.094811	-0.001829	0.001422	-0.002433
01009	12642067	-0.314768	9.822084	0.116912	-0.003374	-0.000411	-0.002698
01010	12642117	-0.305420	9.823594	0.103938	-0.004686	0.002825	-0.002935
01011	12642167	-0.304351	9.818569	0.092002	-0.003964	0.003322	-0.002581
01012	12642217	-0.297598	9.812350	0.100896	-0.009968	0.001861	-0.003468
01013	12642267	-0.318296	9.825394	0.115060	-0.005779	0.002294	-0.000592
01014	12642317	-0.319044	9.816180	0.096776	-0.002655	0.003579	0.000013
01015	12642367	-0.308096	9.833400	0.096452	-0.001121	-0.001728	-0.001395
01016	12642417	-0.305779	9.817619	0.106374	-0.004409	0.000153	0.000129
01017	12642467	-0.301958	9.815732	0.108980	-0.004268	0.001610	-0.002366
01018	12642517	-0.281917	9.814982	0.127344	-0.006053	-0.000852	-0.004712
01019	12642567	-0.316140	9.827297	0.101419	-0.007331	0.001588	-0.002097
01020	12642617	-0.303938	9.827141	0.121433	-0.003514	0.003829	0.003831
01021	12642667	-0.291241	9.798130	0.105378	-0.006318	0.001834	-0.001685
01022	12642717	-0.297219	9.824297	0.095553	-0.005291	0.003016	-0.000142
01023	12642767	-0.304293	9.832552	0.108123	0.000586	0.000213	0.001077
01024	12642817	-0.302939	9.820267	0.106391	-0.004864	-0.000693	-0.000519
01025	12642867	-0.300855	9.827454	0.103427	-0.002860	0.003994	0.000562
01026	12642917	-0.300866	9.808764	0.100157	-0.006581	-0.003141	-0.000747
01027	12642967	-0.306152	9.811937	0.105587	-0.002656	-0.002518	0.001199
01028	12643017	-0.294622	9.810567	0.111281	-0.004058	0.001188	-0.002531
01029	12643067	-0.313645	9.826180	0.114042	-0.003302	0.000296	-0.005128
01030	12643117	-0.291851	9.808125	0.102503	-0.006918	-0.001602	-0.002087
01031	12643167	-0.313791	9.822502	0.106190	-0.006393	-0.000080	-0.003938
01032	12643217	-0.307666	9.821591	0.093472	-0.005355	0.001817	-0.001559
01033	12643267	-0.315518	9.836704	0.107195	-0.006387	0.001057	-0.000853
01034	12643317	-0.318631	9.833123	0.105935	-0.002845	0.000212	-0.002280
01035	12643367	-0.312778	9.822510	0.091479	-0.004196	-0.000285	0.001730
01036	12643417	-0.307892	9.822598	0.120330	-0.007217	0.002875	-0.003310
01037	12643467	-0.296294	9.822608	0.098311	-0.002713	0.001251	-0.000928
01038	12643517	-0.299370	9.820259	0.109257	-0.005388	-0.000147	0.000257
01039	12643567	-0.312465	9.817241	0.110265	-0.006986	0.000918	-0.000757
01040	12643617	-0.292020	9.822198	0.097324	-0.002104	0.001065	-0.001635
01041	12643667	-0.298263	9.818460	0.104135	-0.003158	0.000852	-0.002791
01042	12643717	-0.305664	9.820123	0.097896	-0.002470	-0.000886	-0.005393
01043	12643767	-0.293237	9.815357	0.093734	-0.000032	0.000455	-0.000749
01044	12643817	-0.306342	9.826770	0.097356	-0.006504	0.000858	-0.000244
01045	12643867	-0.289199	9.817535	0.109644	-0.006267	0.005249	-0.003269
01046	12643917	-0.306993	9.841083	0.091428	-0.003798	-0.000066	-0.003143
01047	12643967	-0.321903	9.814968	0.095853	-0.002164	-0.001132	-0.001934
01048	12644017	-0.315073	9.807488	0.093955	-0.005348	0.001591	-0.000533
01049	12644067	-0.318121	9.824207	0.115056	-0.004729	-0.001048	-0.001479
01050	12644117	-0.290355	9.817462	0.098429	-0.007128	0.000907	-0.003995
01051	12644167	-0.276701	9.821467	0.095155	-0.001539	0.000396	-0.001193
01052	12644217	-0.310440	9.832465	0.124550	-0.001246	0.001239	-0.003365
01053	12644267	-0.322129	9.840025	0.070729	-0.004070	0.000580	-0.001278
01054	12644317	-0.309115	9.840158	0.134629	-0.006504	0.002959	-0.000460
01055	12644367	-0.307865	9.820719	0.088464	-0.007386	0.001166	-0.001971
01056	12644417	-0.297434	9.805770	0.127622	-0.003524	0.000561	-0.000613
01057	12644467	-0.290969	9.797725	0.100455	-0.002378	-0.001393	-0.001554
01058	12644517	-0.297377	9.834060	0.092807	-0.000730	0.001120	-0.001866
01059	12644567	-0.316676	9.849453	0.141305	-0.000905	0.001667	-0.002850
01060	12644617	-0.294107	9.806325	0.078996	-0.005163	0.000620	-0.002561
01061	12644667	-0.305806	9.812660	0.120501	-0.003609	-0.000831	-0.000262
01062	12644717	-0.296524	9.825447	0.098652	-0.003785	-0.000221	0.000766
01063	12644767	-0.296086	9.817295	0.104462	-0.006779	0.003075	-0.004978
01064	12644817	-0.309012	9.797661	0.121218	-0.003910	0.001515	-0.002270
01065	12644867	-0.315070	9.827283	0.087416	-0.003327	-0.000668	-0.001545
01066	12644917	-0.315471	9.831110	0.131527	-0.004259	-0.000525	-0.002631
01067	12644967	-0.306946	9.832426	0.099152	-0.003777	0.000129	-0.003239
01068	12645017	-0.299528	9.801042	0.094223	-0.007376	0.004171	-0.000836
01069	12645067	-0.303955	9.813685	0.100995	-0.000886	-0.000306	-0.004817
01070	12645117	-0.302989	9.828773	0.092688	-0.005759	0.003617	-0.000587
01071	12645167	-0.295454	9.818227	0.121592	-0.003956	-0.000326	-0.003720
01072	12645217	-0.291003	9.813240	0.078794	-0.006013	-0.001714	0.000347
01073	12645267	-0.311271	9.809731	0.090183	-0.006165	0.004455	0.002048
01074	12645317	-0.294746	9.817609	0.100759	-0.004754	-0.000945	0.001024
01075	12645367	-0.302754	9.817153	0.123627	-0.006074	-0.001680	0.001116
01076	12645417	-0.304208	9.820701	0.092415	-0.003863	-0.001395	-0.006550
01077	12645467	-0.333536	9.833179	0.121272	-0.001834	0.001618	-0.002880
01078	12645517	-0.284550	9.799068	0.095391	-0.000892	-0.001851	-0.001561
01079	12645567	-0.304023	9.817398	0.091438	-0.002461	0.000224	-0.001032
01080	12645617	-0.277091	9.797608	0.119991	0.000121	0.000292	-0.003794
01081	12645667	-0.307005	9.834937	0.074422	-0.003868	0.001424	-0.000827
01082	12645717	-0.314226	9.822657	0.111352	-0.001398	-0.001021	-0.001458
01083	12645767	-0.307426	9.823801	0.088675	-0.005929	-0.000326	-0.002176
01084	12645817	-0.321059	9.828230	0.113377	-0.003754	0.003713	-0.003316
01085	12645867	-0.325182	9.819919	0.110982	-0.002474	0.000342	-0.004680
01086	12645917	-0.290276	9.812194	0.085659	-0.002802	0.002187	0.001347
01087	12645967	-0.317804	9.812565	0.101155	-0.006948	0.000825	0.000046
01088	12646017	-0.294639	9.810565	0.096023	-0.005856	0.001486	-0.000150
01089	12646067	-0.296865	9.822445	0.123766	-0.004815	-0.002175	-0.000267
01090	12646117	-0.314715	9.811098	0.106629	-0.004031	0.000361	0.000612
01091	12646167	-0.299095	9.824480	0.113010	-0.001170	0.002956	-0.002559
01092	12646217	-0.306806	9.830785	0.113299	-0.002933	-0.001311	-0.004213
01093	12646267	-0.296592	9.806538	0.093641	-0.006085	-0.001784	-0.003210
01094	12646317	-0.313623	9.823780	0.100622	-0.004274	0.000128	0.000768
01095	12646367	-0.305384	9.826344	0.109982	-0.004195	-0.001254	0.002237
01096	12646417	-0.303713	9.814165	0.116624	-0.003903	-0.000679	-0.002637
01097	12646467	-0.298751	9.826908	0.109312	-0.006599	0.000894	0.001227
01098	12646517	-0.310211	9.802324	0.079107	-0.005633	-0.001673	-0.001161
01099	12646567	-0.303201	9.817333	0.095726	-0.002341	0.000381	-0.003372
01100	12646617	-0.306662	9.812098	0.110185	-0.003483	0.002303	-0.001047
01101	12646667	-0.288621	9.821918	0.087102	-0.003891	0.004036	-0.001552
01102	12646717	-0.285390	9.798353	0.111257	-0.003501	0.001752	-0.002144
01103	12646767	-0.303702	9.826929	0.088922	-0.007945	0.000704	-0.001911
01104	12646817	-0.302528	9.811511	0.104909	-0.005483	0.003144	0.001175
01105	12646867	-0.295600	9.819994	0.099078	-0.001718	-0.000058	-0.002828
01106	12646917	-0.295381	9.804890	0.109717	-0.004520	0.001769	-0.000022
01107	12646967	-0.306654	9.813363	0.105156	-0.004558	0.005060	0.000443
01108	12647017	-0.291416	9.828780	0.101766	-0.005850	-0.000907	-0.002053
01109	12647067	-0.303862	9.832976	0.112099	-0.004999	-0.000434	-0.001475
01110	12647117	-0.290555	9.808475	0.096107	-0.001030	-0.000527	-0.000111
01111	12647167	-0.309614	9.805524	0.103033	-0.004748	0.000056	0.002116
01112	12647217	-0.305605	9.819715	0.108928	-0.002071	0.004265	-0.000528
01113	12647267	-0.277459	9.821107	0.102802	-0.002741	0.003253	-0.000438
01114	12647317	-0.309502	9.810002	0.073808	-0.005097	0.004890	0.000156
01115	12647367	-0.297233	9.830479	0.079111	-0.001389	0.002722	-0.001626
01116	12647417	-0.315269	9.812689	0.111154	-0.002547	0.004189	-0.001775
01117	12647467	-0.293674	9.823785	0.116165	-0.006837	0.000476	0.003020
01118	12647517	-0.310085	9.822731	0.094354	-0.002838	-0.000080	-0.001733
01119	12647567	-0.306525	9.823335	0.104428	-0.004700	0.003439	-0.000716
01120	12647617	-0.300535	9.814406	0.103743	-0.005946	0.001126	-0.003006
01121	12647667	-0.304394	9.833803	0.119533	-0.005028	0.003861	-0.000522
01122	12647717	-0.306540	9.818274	0.109142	-0.003214	0.000790	-0.001215
01123	12647767	-0.308093	9.826015	0.113962	-0.000811	-0.000200	-0.001583
01124	12647817	-0.309537	9.816410	0.135589	-0.003808	0.003587	-0.000783
01125	12647867	-0.306175	9.826260	0.099419	-0.007032	0.001909	-0.004531
01126	12647917	-0.318152	9.834780	0.106410	-0.002526	0.002483	-0.000441
01127	12647967	-0.324927	9.826092	0.095434	-0.005519	-0.002223	-0.001673
01128	12648017	-0.301975	9.821478	0.090014	-0.004131	0.001512	-0.002237
01129	12648067	-0.299698	9.812643	0.095253	-0.001773	0.002816	-0.000474
01130	12648117	-0.284061	9.817215	0.088242	-0.003991	0.000901	-0.003266
01131	12648167	-0.289485	9.818791	0.089506	-0.004940	-0.000112	0.000160
01132	12648217	-0.291997	9.819212	0.106184	-0.001798	-0.001407	0.000655
01133	12648267	-0.322474	9.822912	0.103346	-0.005325	0.002079	0.000045
01134	12648317	-0.309211	9.816923	0.102735	-0.002617	-0.001273	-0.005009
01135	12648367	-0.317038	9.821836	0.100692	-0.005586	0.003106	-0.001486
01136	12648417	-0.316682	9.817438	0.125021	-0.001568	0.001331	-0.001924
01137	12648467	-0.309063	9.817776	0.093233	-0.005849	0.001191	-0.001080
01138	12648517	-0.311677	9.835190	0.100644	-0.006574	-0.001204	0.000030
01139	12648567	-0.304124	9.813937	0.100305	-0.003179	0.001588	-0.004614
01140	12648617	-0.316267	9.830115	0.118865	-0.005119	0.005630	-0.001699
01141	12648667	-0.282031	9.807859	0.096950	-0.005143	0.001109	-0.002078
01142	12648717	-0.297967	9.810740	0.097153	-0.002739	0.000026	-0.000036
01143	12648767	-0.315760	9.839152	0.117336	-0.001401	-0.000660	0.002293
01144	12648817	-0.305314	9.824448	0.094552	-0.003003	0.003343	-0.001235
01145	12648867	-0.321636	9.828542	0.108304	-0.005580	-0.002127	0.000278
01146	12648917	-0.306447	9.835530	0.098033	-0.008865	0.003690	-0.001474
01147	12648967	-0.317415	9.818692	0.104524	-0.003710	0.001526	0.001065
01148	12649017	-0.323230	9.819912	0.112627	-0.001290	-0.001334	0.000213
01149	12649067	-0.313347	9.832769	0.102274	-0.003191	0.003373	-0.000656
01150	12649117	-0.324891	9.819644	0.098126	-0.005002	-0.000443	-0.002918
01151	12649167	-0.290499	9.826755	0.110989	-0.002185	-0.000617	-0.003055
01152	12649217	-0.279850	9.804724	0.117531	-0.005327	0.000550	-0.003808
01153	12649267	-0.312534	9.811569	0.092908	-0.001889	0.003558	-0.000024
01154	12649317	-0.313063	9.833088	0.097730	-0.003783	0.000747	0.000354
01155	12649367	-0.333010	9.833273	0.115396	-0.005065	0.000429	-0.004289
01156	12649417	-0.315815	9.824005	0.083915	-0.005548	0.000612	-0.004930
01157	12649467	-0.308448	9.822494	0.095803	-0.003217	0.000752	-0.002275
01158	12649517	-0.322893	9.823339	0.090595	-0.004061	-0.000804	0.000058
01159	12649567	-0.305566	9.802326	0.097973	-0.005665	-0.001644	-0.001096
01160	12649617	-0.294264	9.826513	0.108195	-0.002168	0.001999	-0.002463
01161	12649667	-0.309063	9.840315	0.093176	-0.004736	0.002603	0.001200
01162	12649717	-0.320095	9.826097	0.098702	-0.001043	0.000222	0.001182
01163	12649767	-0.310051	9.832645	0.113107	-0.005376	-0.000537	0.000001
01164	12649817	-0.309694	9.818552	0.119505	-0.001135	0.000890	-0.000963
01165	12649867	-0.303335	9.835033	0.102029	-0.005220	0.001691	0.000066
01166	12649917	-0.273149	9.818185	0.111289	-0.006107	0.003612	-0.000926
01167	12649967	-0.305029	9.832665	0.100533	-0.002629	-0.000596	-0.002332
01168	12650017	-0.303716	9.822663	0.103942	-0.002261	0.002128	-0.001931
01169	12650067	-0.314472	9.823712	0.119860	-0.003804	0.003491	-0.001408
01170	12650117	-0.301212	9.815633	0.100099	-0.004017	0.001000	-0.001648
01171	12650167	-0.325099	9.820391	0.095466	-0.006033	-0.000070	-0.001455
01172	12650217	-0.304625	9.827104	0.107520	-0.003389	0.003167	-0.005291
01173	12650267	-0.301595	9.815988	0.123098	-0.003460	0.005788	-0.002680
01174	12650317	-0.306125	9.822419	0.117812	-0.002684	0.001573	-0.000011
01175	12650367	-0.308099	9.831926	0.099940	-0.006078	0.001382	-0.002664
01176	12650417	-0.310689	9.831429	0.098837	-0.001781	0.001100	-0.001589
01177	12650467	-0.311739	9.826904	0.099420	-0.003063	0.004574	0.001160
01178	12650517	-0.287485	9.802594	0.095954	-0.004496	0.005022	-0.003229
01179	12650567	-0.302335	9.819657	0.115257	-0.004710	0.001795	-0.001162
01180	12650617	-0.308203	9.815697	0.121747	-0.005353	0.000755	0.000375
01181	12650667	-0.312491	9.816752	0.079904	-0.000107	0.004978	0.000510
01182	12650717	-0.318073	9.831523	0.071256	-0.008408	0.001609	0.003113
01183	12650767	-0.305017	9.811524	0.102060	-0.004215	0.000960	-0.002639
01184	12650817	-0.315502	9.824882	0.088810	-0.001122	-0.002395	0.001792
01185	12650867	-0.306141	9.820695	0.106848	-0.003435	-0.002444	-0.002760
01186	12650917	-0.318014	9.824489	0.097116	-0.006185	-0.000363	-0.001746
01187	12650967	-0.306096	9.805574	0.102777	-0.004446	0.002512	-0.002055
01188	12651017	-0.296448	9.819067	0.112018	-0.003279	0.005671	0.003890
01189	12651067	-0.297804	9.816317	0.120956	-0.005396	0.002139	-0.002088
01190	12651117	-0.294320	9.815360	0.107978	-0.004295	0.003065	0.001121
01191	12651167	-0.303325	9.819490	0.094990	-0.001203	0.002214	0.000851
01192	12651217	-0.307255	9.811469	0.119793	-0.003395	0.001329	-0.003152
01193	12651267	-0.289987	9.804979	0.123527	-0.003691	0.002174	0.001016
01194	12651317	-0.299951	9.818911	0.119920	-0.011622	0.001931	-0.001273
01195	12651367	-0.312937	9.821372	0.103321	-0.006753	0.001567	-0.001442
01196	12651417	-0.307341	9.821849	0.107839	-0.006676	0.000882	-0.003464
01197	12651467	-0.313719	9.831993	0.090804	-0.003129	0.003508	0.001343
01198	12651517	-0.313836	9.817541	0.089649	-0.005705	0.003678	-0.004127
01199	12651567	-0.295252	9.817590	0.101244	-0.002667	0.001866	-0.000077
01200	12651617	-0.302855	9.830746	0.103687	-0.004582	0.001667	-0.002313
01201	12651667	-0.292732	9.817011	0.109880	-0.005260	0.002077	0.000735
01202	12651717	-0.310658	9.815939	0.103483	-0.003583	-0.001241	0.002217
01203	12651767	-0.306571	9.820127	0.112326	-0.004370	0.001121	-0.001231
01204	12651817	-0.317526	9.814685	0.087275	-0.004846	-0.000981	-0.000468
01205	12651867	-0.293866	9.818801	0.100993	-0.003274	0.003919	-0.000094
01206	12651917	-0.301845	9.820822	0.117107	-0.002643	0.001122	-0.001425
01207	12651967	-0.307993	9.840988	0.112119	-0.003705	0.000528	0.001300
01208	12652017	-0.320830	9.839478	0.107691	-0.007127	0.000463	-0.000422
01209	12652067	-0.290596	9.799959	0.110112	-0.004800	0.004701	-0.000890
01210	12652117	-0.283161	9.810550	0.106026	-0.005367	-0.001160	-0.004798
01211	12652167	-0.320454	9.827428	0.105073	-0.006334	0.002476	-0.001664
01212	12652217	-0.301302	9.826781	0.100224	-0.001298	0.002118	-0.000075
01213	12652267	-0.301228	9.803988	0.085925	-0.002951	0.001697	-0.002190
01214	12652317	-0.300879	9.802207	0.109677	-0.005484	0.004040	-0.000861
01215	12652367	-0.307679	9.808652	0.086475	-0.004508	0.004513	-0.000729
01216	12652417	-0.302197	9.825984	0.090119	-0.006171	0.003611	-0.000025
01217	12652467	-0.311805	9.811841	0.107128	-0.004996	0.003526	-0.004228
01218	12652517	-0.296982	9.820827	0.104989	-0.000080	0.001105	-0.000692
01219	12652567	-0.294825	9.823319	0.114985	-0.006558	-0.000731	-0.004088
01220	12652617	-0.308481	9.821136	0.106844	-0.003077	-0.000369	-0.000472
01221	12652667	-0.310020	9.843688	0.104370	-0.001677	0.004811	-0.004773
01222	12652717	-0.312806	9.834255	0.083409	-0.004952	0.002174	-0.002920
01223	12652767	-0.313285	9.842092	0.081902	-0.001983	-0.000572	0.000581
01224	12652817	-0.293423	9.826334	0.089167	-0.001056	0.001670	0.000367
01225	12652867	-0.308591	9.834670	0.106675	-0.005585	0.000039	0.000661
01226	12652917	-0.311782	9.827221	0.093770	0.001232	0.001030	-0.000474
01227	12652967	-0.295013	9.833481	0.117049	-0.001907	-0.000163	-0.005442
01228	12653017	-0.301348	9.817446	0.121342	-0.001236	0.001085	-0.001112
01229	12653067	-0.299147	9.819242	0.098869	-0.004027	0.000189	-0.002355
01230	12653117	-0.305051	9.815193	0.110553	-0.001325	0.004153	0.000189
01231	12653167	-0.317458	9.827292	0.100136	-0.002539	-0.000003	0.001263
01232	12653217	-0.313920	9.827353	0.099223	-0.005948	-0.000547	-0.000395
01233	12653267	-0.311489	9.819270	0.102098	-0.002999	0.004372	-0.000670
01234	12653317	-0.286829	9.816701	0.088802	-0.005460	0.001202	-0.000940
01235	12653367	-0.318219	9.819184	0.102579	-0.003396	0.000425	-0.002961
01236	12653417	-0.300388	9.818668	0.119604	-0.005975	0.002550	0.001282
01237	12653467	-0.308503	9.808142	0.102999	-0.004148	-0.002003	-0.000762
01238	12653517	-0.287636	9.813549	0.108468	-0.007032	0.001404	-0.000097
01239	12653567	-0.315074	9.825527	0.093619	-0.001136	-0.001176	-0.000923
01240	12653617	-0.310523	9.836876	0.130844	-0.006178	0.002541	-0.002531
01241	12653667	-0.320376	9.844251	0.105973	-0.006047	0.000808	0.000668
01242	12653717	-0.309056	9.815224	0.105430	-0.004365	0.000931	-0.000361
01243	12653767	-0.306822	9.814421	0.097257	-0.003330	0.001827	0.001401
01244	12653817	-0.288504	9.810227	0.091884	-0.003587	-0.000542	-0.001048
01245	12653867	-0.297554	9.807252	0.108398	-0.001371	-0.001696	-0.000738
01246	12653917	-0.313667	9.807107	0.104966	-0.004458	-0.001166	0.001226
01247	12653967	-0.316109	9.820671	0.115827	-0.007018	-0.000020	-0.001486
01248	12654017	-0.328152	9.848509	0.100478	-0.004765	0.002240	-0.004458
01249	12654067	-0.321145	9.848164	0.098068	-0.005643	0.002872	-0.002721
01250	12654117	-0.308880	9.814816	0.101025	-0.002114	0.002551	-0.001515
01251	12654167	-0.302786	9.819195	0.114511	-0.004513	0.002576	-0.001733
01252	12654217	-0.299163	9.815413	0.101101	-0.006009	0.002022	-0.005129
01253	12654267	-0.308472	9.828928	0.093726	-0.005531	0.000429	0.000375
01254	12654317	-0.304848	9.815872	0.112794	-0.003050	-0.000174	-0.000600
01255	12654367	-0.328666	9.823068	0.088276	-0.003846	0.006744	-0.002863
01256	12654417	-0.306671	9.809040	0.108351	-0.006123	0.000864	-0.002475
01257	12654467	-0.302605	9.817285	0.084699	-0.009867	0.000928	-0.000668
01258	12654517	-0.303853	9.819828	0.102939	-0.004673	0.000507	-0.000113
01259	12654567	-0.301629	9.824870	0.101015	-0.003009	0.004371	-0.004128
01260	12654617	-0.318865	9.834506	0.108830	-0.005364	-0.001764	0.000589
01261	12654667	-0.291666	9.809349	0.100000	-0.002751	0.001404	-0.003061
01262	12654717	-0.298918	9.824618	0.103353	-0.000299	-0.000191	0.000133
01263	12654767	-0.307262	9.830909	0.089296	-0.003395	-0.001504	-0.001275
01264	12654817	-0.306511	9.815925	0.107900	-0.008517	-0.002243	0.000080
01265	12654867	-0.315673	9.829898	0.086639	-0.007680	-0.001716	-0.004441
01266	12654917	-0.297271	9.806938	0.098399	-0.004280	0.001193	-0.000459
01267	12654967	-0.309264	9.820548	0.113844	-0.005927	0.000642	-0.002091
01268	12655017	-0.309061	9.826726	0.097515	-0.005026	0.004330	-0.005919
01269	12655067	-0.305294	9.834466	0.107054	-0.003532	0.003979	-0.002110
01270	12655117	-0.308667	9.821650	0.088709	-0.006264	0.000988	-0.004140
01271	12655167	-0.316435	9.830960	0.109978	-0.004504	-0.000945	-0.002004
01272	12655217	-0.316100	9.842337	0.095108	-0.003165	0.001337	-0.002800
01273	12655267	-0.316677	9.822143	0.111997	-0.007362	0.000322	-0.004556
01274	12655317	-0.315381	9.832101	0.113361	-0.002827	-0.000503	-0.005278
01275	12655367	-0.305405	9.809609	0.087675	-0.005510	0.003585	-0.003617
01276	12655417	-0.309284	9.829926	0.121242	-0.005057	-0.000931	-0.006206
01277	12655467	-0.297456	9.813998	0.101838	-0.006966	0.002075	-0.003716
01278	12655517	-0.320905	9.813714	0.100858	-0.003713	-0.001476	-0.000119
01279	12655567	-0.299593	9.812729	0.120716	-0.005024	0.002697	0.001056
01280	12655617	-0.302949	9.815140	0.115678	-0.003206	-0.001503	-0.001281
01281	12655667	-0.321337	9.819412	0.100457	-0.004473	-0.000017	-0.004502
01282	12655717	-0.295365	9.818585	0.113787	-0.004680	0.000795	-0.000556
01283	12655767	-0.305712	9.822893	0.087877	-0.004113	0.001100	-0.000396
01284	12655817	-0.319582	9.824817	0.090308	-0.000908	-0.001299	-0.001443
01285	12655867	-0.295470	9.828294	0.099638	-0.005627	0.002227	-0.002918
01286	12655917	-0.300477	9.811159	0.114413	-0.002188	0.002106	0.001207
01287	12655967	-0.322115	9.832283	0.095949	-0.006706	0.004410	0.000209
01288	12656017	-0.309609	9.808342	0.089808	-0.002899	-0.002106	-0.000415
01289	12656067	-0.302308	9.816103	0.099865	-0.003179	-0.002015	0.001734
01290	12656117	-0.312479	9.819700	0.104730	-0.005145	0.003534	-0.000668
01291	12656167	-0.318538	9.828165	0.104478	-0.003062	0.001016	-0.002927
01292	12656217	-0.302373	9.814114	0.105572	-0.003299	0.001792	0.000922
01293	12656267	-0.312865	9.812155	0.101074	-0.004742	0.001439	-0.003210
01294	12656317	-0.318413	9.838655	0.101345	-0.003061	0.001180	-0.001104
01295	12656367	-0.300428	9.820933	0.080230	-0.004570	0.001250	0.000086
01296	12656417	-0.282160	9.803009	0.103545	-0.002982	0.001962	0.002966
01297	12656467	-0.311749	9.815258	0.100881	-0.005223	0.001622	-0.003080
01298	12656517	-0.304678	9.821264	0.101835	-0.007071	-0.000706	-0.002993
01299	12656567	-0.304837	9.822809	0.109261	-0.005617	0.002433	0.001700
01300	12656617	-0.299343	9.801315	0.107336	-0.006850	0.000597	0.000091
01301	12656667	-0.296565	9.822769	0.102629	-0.000487	0.002613	-0.001039
01302	12656717	-0.304954	9.827171	0.102687	-0.001200	0.000987	-0.000600
01303	12656767	-0.311044	9.837244	0.106573	-0.002436	0.000637	-0.001302
01304	12656817	-0.312001	9.837580	0.099148	-0.001794	-0.001609	-0.002529
01305	12656867	-0.289666	9.831840	0.104853	-0.004790	0.002545	0.002562
01306	12656917	-0.306561	9.819748	0.106328	-0.005136	0.005210	-0.000756
01307	12656967	-0.307012	9.817010	0.098786	-0.007833	0.003090	-0.004538
01308	12657017	-0.305502	9.822555	0.125316	-0.005566	0.001460	-0.000646
01309	12657067	-0.305299	9.823849	0.118515	-0.002725	0.001444	-0.003119
01310	12657117	-0.314431	9.816282	0.093763	-0.008439	0.002608	0.002030
01311	12657167	-0.300525	9.817226	0.105129	-0.003371	0.001851	-0.000652
01312	12657217	-0.296128	9.805934	0.102764	-0.005709	-0.000195	-0.002354
01313	12657267	-0.319975	9.833783	0.092783	-0.004546	0.003735	-0.001533
01314	12657317	-0.300084	9.807926	0.077540	-0.003225	0.002143	-0.002988
01315	12657367	-0.292935	9.835678	0.099342	-0.005725	-0.001909	-0.004287
01316	12657417	-0.302818	9.824549	0.105605	-0.002781	0.002409	-0.001931
01317	12657467	-0.329037	9.812078	0.109069	-0.003617	0.005820	-0.000337
01318	12657517	-0.297005	9.814881	0.106561	-0.004162	0.000513	-0.001266
01319	12657567	-0.312802	9.825336	0.108092	-0.005510	-0.000380	-0.001297
01320	12657617	-0.310330	9.815819	0.111858	-0.003080	0.000729	0.000302
01321	12657667	-0.324870	9.836982	0.112430	-0.003441	0.001173	-0.000428
01322	12657717	-0.301967	9.826511	0.086429	-0.002950	0.002763	-0.001253
01323	12657767	-0.315450	9.834010	0.097262	-0.002982	-0.001332	-0.000797
01324	12657817	-0.297722	9.831388	0.112300	-0.002772	0.004051	-0.004388
01325	12657867	-0.308412	9.819322	0.101366	-0.004944	-0.001147	-0.001495
01326	12657917	-0.317036	9.806326	0.106802	-0.001741	0.003014	-0.000326
01327	12657967	-0.292405	9.819512	0.086712	-0.006755	-0.000633	-0.002384
01328	12658017	-0.316651	9.828794	0.095650	-0.006662	0.000466	-0.002695
01329	12658067	-0.308600	9.834711	0.103421	-0.003351	0.000172	-0.001010
01330	12658117	-0.308951	9.822217	0.113102	-0.002521	0.002480	0.000697
01331	12658167	-0.310192	9.821036	0.112372	-0.003221	-0.001023	-0.002365
01332	12658217	-0.300051	9.815576	0.105373	-0.005709	-0.000226	-0.002191
01333	12658267	-0.306215	9.829803	0.115894	-0.002416	0.004225	-0.000163
01334	12658317	-0.308270	9.819594	0.099401	-0.005373	0.002099	-0.004519
01335	12658367	-0.321211	9.829254	0.108747	-0.000559	0.003035	-0.001066
01336	12658417	-0.302140	9.810476	0.110813	-0.002466	0.001740	0.000304
01337	12658467	-0.310794	9.829740	0.100814	-0.003004	-0.001024	-0.005508
01338	12658517	-0.316765	9.832187	0.091561	-0.004654	0.000222	0.001492
01339	12658567	-0.287241	9.820260	0.104082	-0.003058	0.001051	-0.000243
01340	12658617	-0.295946	9.823401	0.093360	-0.004327	-0.000097	0.000847
01341	12658667	-0.302526	9.811338	0.116428	-0.004727	0.001046	-0.002737
01342	12658717	-0.303616	9.814518	0.109346	-0.001129	-0.000500	-0.002113
01343	12658767	-0.310652	9.812042	0.110491	-0.005408	0.001820	0.001406
01344	12658817	-0.316313	9.825317	0.090594	-0.004660	0.000953	-0.003281
01345	12658867	-0.309977	9.818950	0.093642	-0.003137	0.001697	-0.000107
01346	12658917	-0.306933	9.836853	0.104074	-0.007898	0.002514	-0.000280
01347	12658967	-0.309462	9.818932	0.110840	-0.001666	0.002329	-0.004208
01348	12659017	-0.313444	9.827581	0.100419	-0.004771	0.001799	0.000155
01349	12659067	-0.292716	9.823276	0.088289	-0.002965	0.001915	-0.003280
01350	12659117	-0.308630	9.804506	0.092932	-0.003725	0.002877	-0.001925
01351	12659167	-0.311113	9.831631	0.101129	-0.006616	0.001378	0.001308
01352	12659217	-0.294172	9.822315	0.103603	-0.002697	0.003864	-0.001635
01353	12659267	-0.296461	9.818373	0.111085	-0.003946	0.001939	-0.000808
01354	12659317	-0.314391	9.818340	0.098764	-0.004303	0.001895	-0.002474
01355	12659367	-0.316995	9.821372	0.099772	-0.007926	0.001189	-0.002082
01356	12659417	-0.318279	9.830039	0.105977	-0.006845	-0.001470	0.000785
01357	12659467	-0.304926	9.834461	0.091717	-0.003628	0.003076	0.001023
01358	12659517	-0.309739	9.817945	0.097083	0.000012	0.003232	-0.001644
01359	12659567	-0.292088	9.823170	0.111348	-0.005228	-0.000118	-0.000912
01360	12659617	-0.313524	9.826225	0.111130	-0.003229	0.002602	0.000954
01361	12659667	-0.298956	9.829653	0.100591	-0.003730	0.002267	0.000792
01362	12659717	-0.322695	9.819595	0.103033	-0.004257	0.002743	-0.000322
01363	12659767	-0.299171	9.817312	0.116359	-0.002072	0.004523	-0.000480
01364	12659817	-0.301486	9.817945	0.104168	-0.005393	-0.002024	-0.000503
01365	12659867	-0.312386	9.813485	0.096602	-0.004116	-0.001907	0.000561
01366	12659917	-0.298241	9.815534	0.102058	-0.002772	0.002249	-0.000116
01367	12659967	-0.293130	9.803896	0.107026	-0.001350	-0.000411	0.000122
01368	12660017	-0.307010	9.822732	0.120601	-0.004982	0.001399	0.000498
01369	12660067	-0.291865	9.804613	0.107854	-0.006197	0.002380	0.000759
01370	12660117	-0.297322	9.813272	0.110882	-0.002820	0.001759	0.000588
01371	12660167	-0.308756	9.818844	0.110019	-0.003195	0.001534	0.000975
01372	12660217	-0.310451	9.826842	0.097441	-0.006940	0.000723	0.001589
01373	12660267	-0.295367	9.826442	0.104718	-0.004180	0.000053	-0.001951
01374	12660317	-0.303989	9.814890	0.108776	-0.003763	0.001131	-0.000627
01375	12660367	-0.296352	9.821252	0.117420	-0.003319	0.000167	-0.001886
01376	12660417	-0.316385	9.809627	0.116985	-0.002173	0.002611	-0.000177
01377	12660467	-0.311110	9.832225	0.101820	-0.000775	-0.001535	-0.002894
01378	12660517	-0.308846	9.819844	0.106401	-0.001178	0.002170	-0.002874
01379	12660567	-0.315860	9.823866	0.117065	-0.005072	-0.000092	-0.001659
01380	12660617	-0.298307	9.816120	0.110650	-0.002354	-0.001009	-0.001961
01381	12660667	-0.303075	9.823589	0.098993	-0.003233	0.003854	0.000187
01382	12660717	-0.313546	9.835207	0.106154	-0.000581	0.002667	-0.001334
01383	12660767	-0.284694	9.803132	0.102017	-0.003087	0.003777	-0.005461
01384	12660817	-0.287158	9.816191	0.083591	-0.004455	-0.001395	0.000735
01385	12660867	-0.302738	9.822481	0.109735	-0.001059	0.002431	-0.003195
01386	12660917	-0.294868	9.806455	0.109033	-0.003152	0.004177	-0.000203
01387	12660967	-0.295529	9.815031	0.090891	-0.005647	0.001129	0.000110
01388	12661017	-0.308870	9.824450	0.099735	-0.004803	0.004625	-0.002564
01389	12661067	-0.311832	9.834227	0.094259	-0.004764	0.000139	-0.002938
01390	12661117	-0.298310	9.792018	0.088072	-0.001437	0.002660	0.001869
01391	12661167	-0.306458	9.819369	0.108609	-0.004667	0.001337	-0.000948
01392	12661217	-0.301833	9.819812	0.098545	-0.005332	0.003427	-0.000519
01393	12661267	-0.295248	9.817993	0.098392	-0.000598	-0.001550	0.004538
01394	12661317	-0.302562	9.811963	0.099018	-0.006335	0.000302	-0.004990
01395	12661367	-0.309116	9.828093	0.094501	-0.004826	0.000302	-0.000600
01396	12661417	-0.288525	9.798174	0.097146	-0.003341	0.001813	-0.002040
01397	12661467	-0.318446	9.824876	0.110813	-0.003809	0.002745	0.000341
01398	12661517	-0.316973	9.820353	0.112952	-0.003539	-0.001965	0.000088
01399	12661567	-0.299562	9.817557	0.093008	-0.003701	-0.000267	-0.005896
01400	12661617	-0.310979	9.822564	0.097619	-0.005477	0.002744	-0.001132
01401	12661667	-0.317132	9.820983	0.102897	-0.002804	0.005505	0.001477
01402	12661717	-0.298441	9.819279	0.089618	-0.003102	0.000435	-0.000639
01403	12661767	-0.297184	9.826070	0.096826	-0.004835	0.005788	-0.001343
01404	12661817	-0.284962	9.811848	0.121372	-0.001986	0.002743	-0.000469
01405	12661867	-0.323048	9.816461	0.099149	-0.006269	0.001436	-0.002096
01406	12661917	-0.322691	9.839026	0.097417	-0.003334	0.001418	-0.004984
01407	12661967	-0.300649	9.823338	0.101818	-0.002794	-0.000144	0.000003
01408	12662017	-0.309765	9.808409	0.109114	-0.003886	0.001392	0.003794
01409	12662067	-0.305985	9.826099	0.087471	-0.004669	0.005430	-0.003234
01410	12662117	-0.319694	9.834716	0.102456	-0.003820	0.005099	-0.000479
01411	12662167	-0.291940	9.805263	0.111610	-0.001751	0.004627	0.002010
01412	12662217	-0.303108	9.801400	0.107225	-0.006712	0.000398	0.000366
01413	12662267	-0.301715	9.821882	0.118668	-0.005434	0.002524	0.001271
01414	12662317	-0.292573	9.827482	0.116641	-0.003363	0.000454	-0.003330
01415	12662367	-0.301422	9.819986	0.102722	-0.000025	0.003520	-0.000147
01416	12662417	-0.318053	9.824820	0.099538	-0.003989	0.002323	-0.000396
01417	12662467	-0.299257	9.818842	0.102439	-0.007252	-0.000708	0.000653
01418	12662517	-0.304108	9.816771	0.094041	-0.007954	-0.000751	0.000299
01419	12662567	-0.304020	9.816219	0.114351	-0.002763	0.003055	0.001267
01420	12662617	-0.321872	9.833784	0.115178	-0.005969	0.001319	0.000116
01421	12662667	-0.301927	9.841934	0.110320	-0.005248	-0.001477	0.000384
01422	12662717	-0.311897	9.834168	0.113366	-0.004122	-0.000755	-0.000737
01423	12662767	-0.290891	9.817936	0.090490	-0.001725	0.000124	-0.002339
01424	12662817	-0.306216	9.837726	0.103003	-0.000812	0.001691	-0.003263
01425	12662867	-0.317599	9.816478	0.117750	-0.002729	0.003255	0.003066
01426	12662917	-0.301209	9.818892	0.097696	-0.008871	0.001515	-0.004525
01427	12662967	-0.290608	9.822289	0.116614	-0.002044	-0.000110	-0.004521
01428	12663017	-0.311249	9.822169	0.107872	-0.003401	0.001846	-0.001074
01429	12663067	-0.300274	9.813360	0.087546	-0.005907	0.002386	0.001114
01430	12663117	-0.319122	9.819698	0.107509	-0.005467	0.001258	-0.002867
01431	12663167	-0.298090	9.809353	0.118634	-0.003567	0.001931	-0.002871
01432	12663217	-0.297517	9.810691	0.109092	-0.005338	0.002492	0.000472
01433	12663267	-0.299402	9.808259	0.111545	-0.007371	-0.002193	-0.000063
01434	12663317	-0.309329	9.838824	0.121553	-0.004525	-0.000045	0.000037
01435	12663367	-0.299927	9.819121	0.098880	0.000374	0.000913	0.000580
01436	12663417	-0.311289	9.812916	0.092016	-0.002721	0.003632	-0.001711
01437	12663467	-0.307685	9.832839	0.095622	-0.003001	0.001242	-0.000465
01438	12663517	-0.309696	9.822520	0.086053	-0.002101	-0.002105	-0.001224
01439	12663567	-0.312173	9.813048	0.113666	-0.003958	0.002091	-0.002866
01440	12663617	-0.308588	9.831219	0.123019	-0.007219	0.000165	-0.000978
01441	12663667	-0.315331	9.826407	0.137156	-0.003869	0.001480	-0.002198
01442	12663717	-0.301533	9.811713	0.101387	-0.004586	-0.001110	0.000772
01443	12663767	-0.315845	9.815353	0.099452	-0.000907	0.003023	0.000814
01444	12663817	-0.301040	9.821320	0.093653	0.000212	-0.000896	0.003101
01445	12663867	-0.293810	9.821225	0.105932	-0.006381	0.002114	-0.000652
01446	12663917	-0.306030	9.817960	0.107887	-0.003921	0.001795	-0.004213
01447	12663967	-0.308102	9.833163	0.104966	-0.004502	0.000945	-0.004092
01448	12664017	-0.300675	9.816179	0.104709	-0.002585	0.001215	-0.001851
01449	12664067	-0.313319	9.837979	0.110901	-0.000011	0.000837	-0.000933
01450	12664117	-0.314154	9.822952	0.116334	-0.004947	0.000169	-0.000954
01451	12664167	-0.311343	9.815178	0.099581	-0.006497	0.002760	-0.000358
01452	12664217	-0.311354	9.814726	0.097844	-0.004581	-0.000306	-0.000889
01453	12664267	-0.304870	9.819456	0.104004	-0.002215	-0.001729	-0.005263
01454	12664317	-0.305684	9.818499	0.104014	-0.003543	0.001197	-0.000857
01455	12664367	-0.304867	9.817838	0.100886	-0.002213	0.002069	0.002575
01456	12664417	-0.296619	9.816353	0.112422	-0.005597	0.002646	0.000022
01457	12664467	-0.304918	9.810129	0.109037	-0.001635	0.000520	-0.000990
01458	12664517	-0.306833	9.821979	0.092551	-0.004878	0.002078	0.000436
01459	12664567	-0.320560	9.827407	0.114357	-0.002334	0.001577	0.000523
01460	12664617	-0.308485	9.834936	0.097186	-0.008475	0.001303	-0.002474
01461	12664667	-0.303159	9.828456	0.090556	-0.000416	-0.000751	-0.002447
01462	12664717	-0.309468	9.813030	0.101677	-0.003805	0.005481	-0.002497
01463	12664767	-0.294362	9.802281	0.118673	-0.008392	0.001083	0.000341
01464	12664817	-0.300110	9.810275	0.103252	-0.001831	0.001680	-0.000921
01465	12664867	-0.303302	9.816194	0.116435	-0.002728	0.004122	0.001303
01466	12664917	-0.302518	9.826122	0.104252	-0.003345	0.001004	-0.002623
01467	12664967	-0.300648	9.822233	0.111748	-0.007326	0.001189	-0.004371
01468	12665017	-0.302944	9.812269	0.094475	-0.006922	0.002617	-0.003658
01469	12665067	-0.305275	9.829306	0.096048	-0.001096	0.002754	-0.001910
01470	12665117	-0.305662	9.817023	0.106815	-0.001315	0.000692	0.001448
01471	12665167	-0.319597	9.824704	0.106050	-0.004333	-0.000111	-0.001947
01472	12665217	-0.305526	9.825916	0.099596	0.000525	0.005171	-0.001935
01473	12665267	-0.285620	9.815476	0.100284	-0.002237	0.005642	-0.000900
01474	12665317	-0.312885	9.821597	0.097353	-0.005595	0.000056	-0.003900
01475	12665367	-0.306021	9.819408	0.121725	-0.001517	-0.000022	0.001153
01476	12665417	-0.312229	9.811396	0.098051	-0.003798	0.005419	-0.001536
01477	12665467	-0.292658	9.811913	0.110689	-0.005146	-0.000030	-0.004061
01478	12665517	-0.299815	9.819370	0.113361	-0.003321	0.001331	-0.001303
01479	12665567	-0.308734	9.818916	0.089898	-0.003571	0.003164	-0.002480
01480	12665617	-0.291358	9.818592	0.109047	-0.004356	0.000668	0.001035
01481	12665667	-0.305790	9.826437	0.096399	-0.003974	-0.000229	-0.000186
01482	12665717	-0.294891	9.825718	0.105975	-0.006779	0.001331	-0.001903
01483	12665767	-0.306540	9.822219	0.107912	-0.004247	-0.001982	-0.002923
01484	12665817	-0.305028	9.819263	0.115646	0.002200	0.001817	0.000735
01485	12665867	-0.304077	9.815406	0.089847	-0.001618	-0.000862	0.001977
01486	12665917	-0.288568	9.805463	0.101405	-0.006071	0.001349	0.000977
01487	12665967	-0.290213	9.816503	0.107449	-0.008120	0.002308	-0.002854
01488	12666017	-0.309813	9.814460	0.116554	-0.005468	0.003455	-0.002151
01489	12666067	-0.294408	9.819649	0.084806	-0.004633	0.005437	-0.000800
01490	12666117	-0.294990	9.806618	0.097945	-0.004204	0.001930	0.000082
01491	12666167	-0.309425	9.810991	0.110951	-0.001689	0.002430	0.000238
01492	12666217	-0.286726	9.827544	0.101788	-0.004275	0.003351	-0.000297
01493	12666267	-0.307636	9.811980	0.093895	-0.000625	0.004252	0.000465
01494	12666317	-0.293670	9.808402	0.106634	-0.003706	0.003516	0.000506
01495	12666367	-0.305919	9.818710	0.105648	-0.001846	0.001259	-0.000925
01496	12666417	-0.299259	9.807333	0.094140	-0.002933	0.003341	0.001365
01497	12666467	-0.306333	9.812253	0.108360	-0.004879	-0.000151	-0.001531
01498	12666517	-0.319859	9.824335	0.098671	-0.006817	0.001391	-0.004403
01499	12666567	-0.329781	9.832028	0.114643	-0.001188	0.001692	-0.002042
01500	12666617	-0.285210	9.810731	0.100746	-0.002634	-0.001638	-0.004143
01501	12666667	-0.301531	9.813305	0.090135	-0.001837	-0.001328	-0.003436
01502	12666717	-0.287154	9.825930	0.098699	-0.003628	0.001937	0.000847
01503	12666767	-0.309961	9.833704	0.114624	-0.005253	0.000749	-0.000085
01504	12666817	-0.292636	9.818895	0.104080	-0.007661	0.002798	-0.003657
01505	12666867	-0.315016	9.815045	0.105213	-0.000761	0.007311	-0.003234
01506	12666917	-0.285787	9.811437	0.101069	-0.003467	0.001978	0.001167
01507	12666967	-0.280569	9.807773	0.112315	-0.003893	0.003325	-0.000587
01508	12667017	-0.295559	9.819553	0.120229	-0.003090	0.000077	0.000130
01509	12667067	-0.315481	9.832020	0.111481	-0.003171	0.001426	-0.003643
01510	12667117	-0.327018	9.819904	0.118837	-0.007106	-0.000480	-0.001397
01511	12667167	-0.313969	9.823251	0.112199	-0.002202	-0.001012	-0.003530
01512	12667217	-0.294933	9.818784	0.109464	-0.003322	0.003559	-0.000106
01513	12667267	-0.295983	9.820776	0.102878	-0.007238	-0.000290	-0.001431
01514	12667317	-0.329683	9.847714	0.113244	-0.004290	0.005865	-0.000666
01515	12667367	-0.310648	9.836539	0.098964	-0.001717	0.006460	-0.000381
01516	12667417	-0.314036	9.845623	0.107430	-0.005615	0.000392	0.002512
01517	12667467	-0.324572	9.825976	0.096301	-0.006774	0.000170	-0.002130
01518	12667517	-0.317711	9.826717	0.099513	-0.002206	0.003415	-0.002379
01519	12667567	-0.305982	9.819258	0.116451	-0.003287	0.004429	0.000509
01520	12667617	-0.306190	9.820982	0.127591	-0.005841	0.000892	-0.003512
01521	12667667	-0.312707	9.817701	0.103560	-0.000321	0.000215	-0.004105
01522	12667717	-0.319007	9.854806	0.107462	-0.004617	0.002987	-0.000040
01523	12667767	-0.301428	9.823267	0.090432	-0.007089	-0.000161	-0.002132
01524	12667817	-0.319147	9.831224	0.098119	-0.005174	0.004330	-0.002402
01525	12667867	-0.316439	9.823482	0.095261	-0.005394	0.000131	-0.000886
01526	12667917	-0.317007	9.835268	0.114818	-0.002157	0.001829	-0.002969
01527	12667967	-0.305913	9.821341	0.104018	-0.002676	0.001244	0.000298
01528	12668017	-0.297532	9.808230	0.115061	-0.004220	0.000381	-0.001176
01529	12668067	-0.308527	9.815352	0.105781	-0.004791	0.003303	-0.001772
01530	12668117	-0.315168	9.810213	0.109997	-0.001536	0.001556	-0.000536
01531	12668167	-0.308838	9.816823	0.102128	-0.002339	0.001503	-0.002298
01532	12668217	-0.303062	9.822237	0.094477	-0.005192	0.001908	-0.000494
01533	12668267	-0.300123	9.825682	0.104032	-0.005402	0.001095	-0.003512
01534	12668317	-0.291584	9.819909	0.100648	-0.005692	0.003646	0.001182
01535	12668367	-0.308718	9.814479	0.100907	-0.002717	0.002602	0.000788
01536	12668417	-0.321512	9.837696	0.076898	-0.008194	-0.002438	-0.001375
01537	12668467	-0.301236	9.827456	0.095824	-0.002078	0.000284	-0.000992
01538	12668517	-0.300015	9.805700	0.092267	-0.002952	0.002788	-0.001295
01539	12668567	-0.316330	9.833841	0.100455	-0.003538	0.002199	-0.000881
01540	12668617	-0.291736	9.821339	0.100185	-0.005417	0.003707	-0.003786
01541	12668667	-0.319739	9.839637	0.106716	-0.002953	0.003017	-0.000367
01542	12668717	-0.313026	9.811352	0.100070	-0.005584	-0.000103	-0.002904
01543	12668767	-0.312510	9.818153	0.105482	-0.003899	0.002781	0.003064
01544	12668817	-0.294197	9.814772	0.093615	-0.001234	0.001815	-0.003070
01545	12668867	-0.315014	9.820241	0.106219	-0.002670	-0.001241	-0.001707
01546	12668917	-0.308762	9.819217	0.101154	-0.002795	0.004055	-0.000358
01547	12668967	-0.328278	9.830517	0.106378	-0.005762	0.001512	-0.002351
01548	12669017	-0.328027	9.842131	0.091871	-0.010893	0.002068	-0.001151
01549	12669067	-0.295840	9.818413	0.086274	-0.004075	0.001666	-0.003222
01550	12669117	-0.321517	9.844628	0.104151	-0.005975	-0.000816	-0.002494
01551	12669167	-0.297109	9.820078	0.100538	-0.001834	0.004871	-0.001095
01552	12669217	-0.307413	9.831493	0.090756	-0.009532	0.001644	0.000449
01553	12669267	-0.304025	9.824679	0.104562	-0.006007	0.000612	0.002578
01554	12669317	-0.304446	9.830811	0.106692	-0.005055	0.003687	-0.001381
01555	12669367	-0.310009	9.820972	0.093787	-0.005825	0.003476	-0.003397
01556	12669417	-0.319364	9.840946	0.098306	-0.002475	0.001594	-0.004635
01557	12669467	-0.320113	9.843567	0.112815	-0.007085	0.000941	-0.000586
01558	12669517	-0.306717	9.820486	0.112479	-0.004941	-0.000957	-0.000283
01559	12669567	-0.293813	9.830932	0.091768	-0.004341	0.001315	0.000847
01560	12669617	-0.305530	9.821836	0.103073	-0.003172	-0.001411	-0.000487
01561	12669667	-0.300964	9.815575	0.112959	-0.004568	-0.000951	-0.002689
01562	12669717	-0.314432	9.819696	0.095953	-0.003362	-0.001544	-0.001126
01563	12669767	-0.308773	9.820277	0.094005	-0.004538	0.003371	-0.001162
01564	12669817	-0.300783	9.820834	0.110482	-0.003015	0.003689	-0.002160
01565	12669867	-0.316418	9.828814	0.098944	-0.001587	0.001144	-0.000186
01566	12669917	-0.302295	9.806265	0.122398	-0.004810	-0.002093	0.002208
01567	12669967	-0.307363	9.826196	0.086921	-0.002519	0.001367	0.002095
01568	12670017	-0.296527	9.812428	0.111720	-0.001803	0.000623	-0.002817
01569	12670067	-0.306801	9.827528	0.093590	-0.000754	0.002035	-0.001720
01570	12670117	-0.313664	9.808630	0.114041	-0.003847	0.004653	-0.004294
01571	12670167	-0.303377	9.822948	0.085192	-0.002678	0.000093	-0.001116
01572	12670217	-0.305353	9.842031	0.108020	-0.002868	-0.000869	0.000229
01573	12670267	-0.295646	9.808352	0.100090	-0.005335	0.001212	-0.001972
01574	12670317	-0.304237	9.830811	0.097865	0.000615	0.001349	-0.000190
01575	12670367	-0.304748	9.815042	0.105381	-0.004857	0.000451	0.000910
01576	12670417	-0.296708	9.802969	0.110174	-0.006213	0.000847	0.001557
01577	12670467	-0.301792	9.803281	0.100799	-0.004255	0.001329	-0.000660
01578	12670517	-0.304058	9.803667	0.089300	-0.004241	0.003235	0.000057
01579	12670567	-0.310221	9.810679	0.106796	-0.000633	0.003328	-0.000978
01580	12670617	-0.298189	9.832353	0.095498	-0.003508	0.004379	0.000445
01581	12670667	-0.323109	9.854576	0.095902	-0.004429	0.000034	-0.000500
01582	12670717	-0.302015	9.824640	0.100079	-0.003378	0.003217	-0.000557
01583	12670767	-0.305610	9.818863	0.087143	-0.004354	0.002818	0.001915
01584	12670817	-0.315090	9.829775	0.110694	-0.002719	0.004352	-0.003304
01585	12670867	-0.310243	9.834162	0.091455	-0.002602	0.003775	-0.002505
01586	12670917	-0.291703	9.812081	0.107658	-0.003546	0.002310	-0.001364
01587	12670967	-0.313521	9.836298	0.119457	-0.002176	-0.000799	-0.002145
01588	12671017	-0.296652	9.815712	0.098671	-0.003436	0.003153	0.000953
01589	12671067	-0.312464	9.833256	0.086180	-0.002120	0.002018	0.001968
01590	12671117	-0.311800	9.823895	0.109943	-0.003165	0.001643	0.000943
01591	12671167	-0.309753	9.824549	0.099939	-0.004917	-0.001241	-0.003905
01592	12671217	-0.325137	9.840205	0.102980	-0.006780	0.002413	-0.002948
01593	12671267	-0.288479	9.808540	0.093803	-0.003602	-0.000181	-0.002499
01594	12671317	-0.293606	9.804066	0.118527	-0.005179	0.001211	-0.002485
01595	12671367	-0.305683	9.820569	0.114955	-0.001749	0.001980	-0.002935
01596	12671417	-0.304547	9.815321	0.102204	-0.001993	0.002920	-0.000816
01597	12671467	-0.306741	9.820135	0.111612	-0.001980	0.001567	0.001936
01598	12671517	-0.324834	9.815826	0.114805	-0.005540	0.000759	0.000017
01599	12671567	-0.312024	9.796564	0.081961	-0.003814	0.003792	0.000028
01600	12671617	-0.289881	9.795858	0.115158	-0.003275	0.002666	-0.002417
01601	12671667	-0.307905	9.820016	0.103022	-0.004878	-0.000939	0.000935
01602	12671717	-0.319655	9.833050	0.110043	-0.002916	-0.000586	-0.003588
01603	12671767	-0.296729	9.826478	0.092841	-0.003644	0.003668	0.001115
01604	12671817	-0.305123	9.828375	0.101368	-0.005278	0.002669	0.001277
01605	12671867	-0.303162	9.829520	0.105840	-0.002226	-0.001519	-0.004974
01606	12671917	-0.311587	9.830906	0.116611	0.000012	0.001916	-0.003003
01607	12671967	-0.323908	9.830594	0.112214	-0.005678	0.002913	-0.002503
01608	12672017	-0.294966	9.815970	0.098615	-0.003093	-0.002775	0.001756
01609	12672067	-0.306589	9.808652	0.102998	-0.003544	0.000214	-0.000057
01610	12672117	-0.305437	9.826958	0.101062	-0.003297	0.004606	-0.002179
01611	12672167	-0.297814	9.813096	0.098419	-0.004595	0.005261	-0.001629
01612	12672217	-0.304441	9.813723	0.083327	-0.004417	-0.001550	-0.000577
01613	12672267	-0.296976	9.809716	0.102969	-0.004721	0.001700	-0.004116
01614	12672317	-0.327121	9.826512	0.097027	-0.000207	-0.000382	-0.004010
01615	12672367	-0.297782	9.823606	0.109151	-0.004067	0.001626	-0.000782
01616	12672417	-0.313658	9.823363	0.096480	-0.001535	0.000571	0.000197
01617	12672467	-0.301074	9.820439	0.112103	-0.005803	0.003912	-0.002594
01618	12672517	-0.323319	9.843423	0.111311	-0.007550	0.003657	-0.001755
01619	12672567	-0.290847	9.814116	0.083955	-0.001824	-0.000761	-0.002535
01620	12672617	-0.314089	9.835149	0.116644	-0.002421	0.002396	0.001235
01621	12672667	-0.302249	9.831276	0.115956	-0.006893	-0.002206	-0.002594
01622	12672717	-0.324979	9.833907	0.096199	-0.005104	0.000960	-0.001520
01623	12672767	-0.310310	9.818772	0.105196	-0.005724	0.004528	-0.000091
01624	12672817	-0.313549	9.831343	0.102020	-0.002059	0.000656	-0.002298
01625	12672867	-0.307868	9.837452	0.095120	-0.005054	0.001540	-0.000458
01626	12672917	-0.323248	9.831398	0.106427	-0.002325	0.002598	0.002744
01627	12672967	-0.322823	9.848848	0.097999	-0.003690	0.001821	-0.001169
01628	12673017	-0.302213	9.815335	0.103461	-0.005466	0.002208	-0.003727
01629	12673067	-0.320940	9.815305	0.105688	-0.003147	0.002995	0.000343
01630	12673117	-0.291602	9.805508	0.103680	-0.006345	0.000773	-0.001556
01631	12673167	-0.318694	9.816851	0.099263	-0.006480	0.001962	-0.002506
01632	12673217	-0.283706	9.811052	0.103874	-0.006521	0.000419	0.000014
01633	12673267	-0.296908	9.798103	0.102211	-0.004433	-0.000127	-0.000632
01634	12673317	-0.313175	9.820607	0.106603	-0.004772	0.001873	0.002103
01635	12673367	-0.313966	9.817490	0.108076	-0.005244	0.002342	-0.002730
01636	12673417	-0.316209	9.818682	0.121790	-0.005017	0.004280	-0.003970
01637	12673467	-0.305346	9.817132	0.122962	-0.006916	0.001703	-0.000072
01638	12673517	-0.322966	9.832605	0.120496	-0.002483	0.000334	0.000518
01639	12673567	-0.316141	9.820088	0.122464	-0.003193	0.002377	0.000181
01640	12673617	-0.316020	9.824873	0.120285	-0.003294	0.003372	-0.003885
01641	12673667	-0.307506	9.821480	0.100608	-0.002570	0.002745	-0.002163
01642	12673717	-0.297160	9.844472	0.110623	-0.005919	0.000226	-0.003383
01643	12673767	-0.299267	9.842480	0.099351	-0.003020	0.000292	0.004172
01644	12673817	-0.290671	9.816488	0.099625	-0.006108	0.003817	0.000899
01645	12673867	-0.299927	9.810717	0.097026	-0.004603	0.001484	-0.001458
01646	12673917	-0.305826	9.826729	0.100594	-0.004072	0.000849	0.001040
01647	12673967	-0.308359	9.833497	0.105177	-0.005672	0.000983	0.000369
01648	12674017	-0.310659	9.825950	0.100578	-0.002072	0.001136	-0.002076
01649	12674067	-0.305533	9.827105	0.107037	-0.002611	-0.000361	-0.005350
01650	12674117	-0.314724	9.831472	0.093050	-0.006668	0.000961	-0.001324
01651	12674167	-0.274463	9.802469	0.114647	-0.006296	0.002456	-0.000680
01652	12674217	-0.308976	9.823368	0.100348	-0.002708	0.001898	-0.002517
01653	12674267	-0.299836	9.813625	0.108769	-0.006941	0.001342	-0.002478
01654	12674317	-0.312354	9.810868	0.108307	-0.004327	0.002913	0.000121
01655	12674367	-0.317875	9.812913	0.109520	-0.005224	-0.000168	-0.000343
01656	12674417	-0.294080	9.822909	0.111054	-0.004077	0.001741	-0.003767
01657	12674467	-0.300063	9.812638	0.111049	-0.003143	0.001536	-0.001911
01658	12674517	-0.296910	9.817341	0.100695	-0.000919	0.002291	0.000170
01659	12674567	-0.287452	9.802732	0.101835	-0.006483	0.001355	0.000693
01660	12674617	-0.288795	9.824377	0.112748	-0.006796	0.000892	-0.001651
01661	12674667	-0.289790	9.813499	0.109857	-0.004292	0.004816	-0.000995
01662	12674717	-0.303202	9.824495	0.093179	-0.003000	0.002185	-0.002580
01663	12674767	-0.317128	9.835881	0.097774	-0.004525	0.002904	-0.000005
01664	12674817	-0.312699	9.829771	0.081369	-0.000083	-0.002311	-0.002325
01665	12674867	-0.315701	9.837813	0.096610	-0.004625	0.004263	0.000194
01666	12674917	-0.314139	9.823574	0.097969	-0.002928	0.000965	-0.000309
