PacketCounter	SampleTimeFine	Acc_X	Acc_Y	Acc_Z	Gyr_X	Gyr_Y	Gyr_Z
00001	13767917	-0.296241	9.827169	0.122274	-0.004064	0.002048	0.000960
00002	13767967	-0.303517	9.825315	0.129468	-0.002205	0.001592	-0.002285
00003	13768017	-0.297311	9.803166	0.124458	-0.003068	0.003506	-0.004422
00004	13768067	-0.295050	9.789689	0.091986	-0.000153	0.001829	0.002806
00005	13768117	-0.291612	9.779751	0.109064	-0.004142	0.000071	-0.000530
00006	13768167	-0.295093	9.793517	0.105484	-0.004875	-0.001009	-0.000306
00007	13768217	-0.309621	9.804690	0.123337	-0.003435	0.001118	-0.001232
00008	13768267	-0.293637	9.832808	0.128033	-0.002788	0.003704	-0.004998
00009	13768317	-0.319781	9.876806	0.114974	-0.003460	-0.001243	-0.002458
00010	13768367	-0.291569	9.866656	0.119168	-0.005656	-0.000312	-0.000747
00011	13768417	-0.303951	9.857823	0.112647	-0.000619	0.003433	0.001121
00012	13768467	-0.300535	9.809842	0.103869	-0.005913	0.003459	-0.002328
00013	13768517	-0.303257	9.809011	0.109363	-0.005407	0.001597	-0.002114
00014	13768567	-0.296577	9.789297	0.085649	-0.005139	0.003317	-0.001819
00015	13768617	-0.295602	9.760820	0.102638	-0.004848	0.002255	-0.001121
00016	13768667	-0.312505	9.791854	0.107014	-0.002815	0.002643	-0.002407
00017	13768717	-0.290113	9.824877	0.090863	-0.003614	-0.000567	-0.002615
00018	13768767	-0.310089	9.824112	0.109647	-0.005315	-0.000276	-0.002834
00019	13768817	-0.316360	9.844377	0.097922	-0.004032	-0.000440	-0.002195
00020	13768867	-0.307291	9.849495	0.111802	-0.005312	0.001727	-0.002853
00021	13768917	-0.307998	9.836017	0.108479	-0.006651	-0.000393	-0.001551
00022	13768967	-0.311782	9.857020	0.096759	-0.003688	0.000114	0.000112
00023	13769017	-0.306923	9.841396	0.114530	-0.008265	0.000062	-0.002053
00024	13769067	-0.297170	9.811131	0.099980	-0.004088	0.001329	-0.001226
00025	13769117	-0.285383	9.791072	0.133687	-0.002489	-0.002382	0.001572
00026	13769167	-0.297344	9.811546	0.103943	-0.007505	0.000537	0.002018
00027	13769217	-0.295232	9.792523	0.124196	-0.003560	-0.000312	-0.003318
00028	13769267	-0.295619	9.813618	0.124659	-0.004396	-0.000634	0.002194
00029	13769317	-0.273741	9.812155	0.129595	-0.003260	-0.000200	0.000752
00030	13769367	-0.290386	9.839005	0.144275	-0.004210	-0.000673	-0.000981
00031	13769417	-0.273432	9.855833	0.128354	-0.002640	-0.000906	-0.002073
00032	13769467	-0.304410	9.872302	0.142785	-0.007614	-0.003411	-0.000983
00033	13769517	-0.308291	9.855576	0.100920	-0.001986	0.000653	-0.003345
00034	13769567	-0.293873	9.830727	0.139780	-0.004569	0.001579	-0.001833
00035	13769617	-0.290519	9.803958	0.109052	-0.003672	-0.001828	-0.002620
00036	13769667	-0.282364	9.791912	0.112369	-0.002875	0.000681	0.002260
00037	13769717	-0.296719	9.807326	0.131680	-0.004752	0.001826	-0.006730
00038	13769767	-0.280623	9.784795	0.129667	-0.005373	0.001468	-0.002791
00039	13769817	-0.305276	9.809090	0.118284	-0.004461	0.001492	0.001119
00040	13769867	-0.309368	9.826281	0.123741	-0.002372	0.000949	0.000153
00041	13769917	-0.299150	9.824903	0.097278	-0.001642	-0.002064	0.000683
00042	13769967	-0.294669	9.827982	0.117195	-0.000098	0.002900	-0.000191
00043	13770017	-0.301739	9.851788	0.090861	-0.003110	0.001871	-0.003397
00044	13770067	-0.291553	9.849046	0.107634	-0.003808	0.000568	-0.002729
00045	13770117	-0.297112	9.828650	0.102121	-0.001651	-0.000682	-0.000563
00046	13770167	-0.284555	9.813092	0.090849	-0.004434	0.005370	-0.002702
00047	13770217	-0.310061	9.810034	0.114451	-0.002744	0.000724	0.001754
00048	13770267	-0.301142	9.807100	0.081055	-0.002455	0.001369	-0.002888
00049	13770317	-0.287416	9.770983	0.096156	-0.006013	-0.000827	-0.004429
00050	13770367	-0.299205	9.804463	0.084661	-0.003454	-0.000820	-0.005748
00051	13770417	-0.301020	9.801257	0.106414	0.000066	0.001348	-0.004111
00052	13770467	-0.290167	9.819777	0.114189	-0.007496	0.000058	0.000098
00053	13770517	-0.319005	9.856764	0.077111	-0.005631	-0.001395	-0.000265
00054	13770567	-0.301166	9.849228	0.134259	-0.003108	0.001942	-0.001059
00055	13770617	-0.297327	9.867508	0.089929	-0.005135	0.002322	-0.000119
00056	13770667	-0.307501	9.824358	0.126671	-0.005717	-0.003757	-0.001753
00057	13770717	-0.284594	9.800985	0.090858	-0.003277	0.002032	-0.002146
00058	13770767	-0.306926	9.785242	0.109669	-0.005580	0.003158	-0.000882
00059	13770817	-0.293002	9.795999	0.100049	-0.004493	0.000814	-0.003237
00060	13770867	-0.297465	9.793042	0.103850	-0.004275	0.002272	-0.002591
00061	13770917	-0.306420	9.811515	0.129214	-0.003032	0.003491	-0.002332
00062	13770967	-0.290308	9.816834	0.105240	-0.004680	0.002009	-0.001884
00063	13771017	-0.301525	9.828826	0.133753	-0.003200	0.001542	-0.003944
00064	13771067	-0.287636	9.828591	0.098654	-0.008769	0.000710	-0.002011
00065	13771117	-0.304657	9.842076	0.117978	-0.002794	-0.000126	-0.003955
00066	13771167	-0.301119	9.847448	0.126414	-0.006936	0.000551	-0.000671
00067	13771217	-0.300998	9.842319	0.120591	-0.002014	0.003964	-0.000856
00068	13771267	-0.279407	9.805889	0.115635	0.000827	-0.001612	-0.004005
00069	13771317	-0.283913	9.801975	0.104394	-0.001759	0.001933	0.000475
00070	13771367	-0.282827	9.787671	0.094474	-0.004485	0.000720	-0.001702
00071	13771417	-0.297530	9.796528	0.108834	-0.003868	0.006804	-0.001095
00072	13771467	-0.286262	9.787466	0.120234	-0.000937	0.002048	0.000344
00073	13771517	-0.285126	9.816500	0.100160	-0.003689	-0.000074	-0.001612
00074	13771567	-0.306796	9.829697	0.118712	-0.002901	0.001460	-0.001314
00075	13771617	-0.306280	9.852640	0.108753	-0.006848	0.001906	-0.000212
00076	13771667	-0.301736	9.839557	0.114324	-0.001972	-0.002110	-0.003453
00077	13771717	-0.303277	9.831163	0.119295	-0.006575	0.001265	-0.001018
00078	13771767	-0.295506	9.826601	0.098018	-0.001606	0.000736	-0.002991
00079	13771817	-0.303896	9.817401	0.103473	-0.006247	0.003114	-0.000495
00080	13771867	-0.296082	9.808386	0.094122	0.000273	0.002325	0.000058
00081	13771917	-0.291396	9.796254	0.115508	-0.001827	0.006863	-0.002770
00082	13771967	-0.290809	9.797110	0.091028	-0.000834	0.001524	-0.003723
00083	13772017	-0.319413	9.807884	0.123658	-0.005816	-0.000621	-0.000900
00084	13772067	-0.305582	9.809802	0.102463	-0.005900	0.000919	-0.003427
00085	13772117	-0.291771	9.821437	0.097803	-0.004876	0.003267	-0.001237
00086	13772167	-0.308160	9.836129	0.100732	-0.001843	0.000352	-0.000488
00087	13772217	-0.286321	9.832775	0.104917	-0.001927	0.005025	-0.001396
00088	13772267	-0.304437	9.834407	0.108006	-0.006548	0.003492	-0.001712
00089	13772317	-0.303318	9.846282	0.092574	-0.003877	0.002957	-0.002014
00090	13772367	-0.296289	9.814878	0.104281	-0.003067	0.001552	-0.002503
00091	13772417	-0.311904	9.803091	0.117645	-0.005376	0.000838	0.000038
00092	13772467	-0.312667	9.803815	0.115710	-0.006644	0.002559	-0.000786
00093	13772517	-0.305872	9.799100	0.119464	-0.004943	0.000364	0.001471
00094	13772567	-0.293423	9.776895	0.108136	-0.003292	0.000612	-0.000998
00095	13772617	-0.299278	9.811669	0.125197	-0.003713	0.003801	-0.001815
00096	13772667	-0.299144	9.828237	0.112256	-0.005718	0.000215	-0.002820
00097	13772717	-0.297120	9.837050	0.111532	-0.004376	0.002629	-0.000953
00098	13772767	-0.294354	9.834702	0.127730	-0.002098	0.003278	-0.003074
00099	13772817	-0.276475	9.831878	0.109676	-0.001983	0.000704	-0.000199
00100	13772867	-0.313561	9.833887	0.134570	-0.002599	0.001080	0.000861
00101	13772917	-0.298012	9.812561	0.114437	-0.006655	-0.000418	-0.001670
00102	13772967	-0.298570	9.809422	0.102173	-0.003597	0.000222	0.000313
00103	13773017	-0.294311	9.781063	0.129246	-0.005328	0.002357	0.000457
00104	13773067	-0.289047	9.791460	0.105535	-0.003835	0.001609	-0.000095
00105	13773117	-0.299485	9.826322	0.097812	-0.003525	0.002067	-0.000189
00106	13773167	-0.297175	9.828970	0.097078	-0.002781	0.000621	-0.001227
00107	13773217	-0.278829	9.815823	0.087519	-0.006136	-0.000729	-0.002184
00108	13773267	-0.312071	9.837526	0.099644	-0.004573	0.001524	-0.003557
00109	13773317	-0.312021	9.856079	0.127271	-0.007997	0.001558	-0.004218
00110	13773367	-0.303495	9.841099	0.105224	-0.002829	0.001429	0.000060
00111	13773417	-0.292517	9.817916	0.110089	-0.004579	0.002980	-0.000118
00112	13773467	-0.277075	9.817105	0.097844	-0.007022	0.000492	0.003942
00113	13773517	-0.282038	9.810982	0.091078	-0.003973	-0.001876	0.002513
00114	13773567	-0.296421	9.809656	0.104325	-0.004534	0.003631	0.000077
00115	13773617	-0.326510	9.803672	0.113523	-0.001556	0.001123	-0.002696
00116	13773667	-0.290604	9.800862	0.109931	-0.001296	0.002497	0.000668
00117	13773717	-0.294977	9.808587	0.097556	-0.000585	0.005183	-0.000341
00118	13773767	-0.310359	9.822421	0.126447	-0.003925	-0.001623	-0.001041
00119	13773817	-0.315568	9.821176	0.110889	-0.003678	0.000373	-0.004496
00120	13773867	-0.312746	9.836649	0.109157	-0.002586	-0.001375	0.000717
00121	13773917	-0.317099	9.827492	0.115136	-0.001678	0.001960	-0.002757
00122	13773967	-0.294137	9.816228	0.095243	-0.005138	0.001259	-0.002274
00123	13774017	-0.294253	9.808352	0.098008	-0.002586	-0.000568	-0.000238
00124	13774067	-0.301035	9.802439	0.091705	-0.005583	0.001220	-0.001501
00125	13774117	-0.301127	9.796339	0.117698	-0.001693	-0.001552	-0.000727
00126	13774167	-0.273355	9.788326	0.121336	-0.007309	0.000453	0.002468
00127	13774217	-0.308017	9.824882	0.107217	-0.004802	0.001077	0.001699
00128	13774267	-0.302158	9.808022	0.112898	-0.008889	0.000647	0.000843
00129	13774317	-0.300856	9.833069	0.090014	-0.007383	0.000677	0.001577
00130	13774367	-0.294220	9.822425	0.139177	-0.000514	0.001922	-0.000292
00131	13774417	-0.293908	9.841243	0.119162	-0.004191	0.000658	-0.002534
00132	13774467	-0.291361	9.828327	0.127913	-0.002542	0.004370	-0.001815
00133	13774517	-0.297742	9.827312	0.112057	-0.006350	0.003139	-0.003254
00134	13774567	-0.279288	9.819091	0.121527	-0.005154	0.004006	-0.000146
00135	13774617	-0.285959	9.803508	0.111422	-0.003140	0.001877	-0.001381
00136	13774667	-0.282111	9.804199	0.100342	-0.001224	0.003908	-0.002336
00137	13774717	-0.282124	9.794467	0.116142	-0.001209	0.003424	-0.002853
00138	13774767	-0.300707	9.824749	0.106514	-0.004803	0.002779	-0.002395
00139	13774817	-0.303803	9.825156	0.108286	-0.008331	0.000041	-0.001661
00140	13774867	-0.281586	9.827024	0.128224	-0.005374	0.001674	-0.001085
00141	13774917	-0.304020	9.843192	0.107720	-0.004960	0.000718	-0.000162
00142	13774967	-0.287991	9.839870	0.105239	-0.005297	0.001682	0.002183
00143	13775017	-0.303227	9.830919	0.119924	-0.004113	0.000308	-0.001159
00144	13775067	-0.286105	9.818277	0.106908	-0.005171	0.001452	-0.000124
00145	13775117	-0.286636	9.803234	0.112891	-0.004203	0.004117	-0.001237
00146	13775167	-0.292433	9.806675	0.085062	-0.002797	0.001274	0.000829
00147	13775217	-0.297804	9.813347	0.094517	-0.003434	0.001200	0.000221
00148	13775267	-0.301952	9.810534	0.104372	-0.004629	0.001397	-0.001377
00149	13775317	-0.291157	9.808949	0.107883	-0.005415	0.000162	0.001276
00150	13775367	-0.306448	9.823440	0.109893	-0.003263	0.003876	-0.000241
00151	13775417	-0.290062	9.822871	0.082613	-0.001503	0.001613	-0.001577
00152	13775467	-0.295442	9.817322	0.115774	-0.003304	0.003099	-0.001341
00153	13775517	-0.287853	9.832007	0.092271	-0.004083	0.001470	-0.000612
00154	13775567	-0.303987	9.831176	0.118051	-0.005260	0.001998	-0.002941
00155	13775617	-0.305110	9.820787	0.098397	-0.003899	0.000635	-0.000229
00156	13775667	-0.299922	9.819824	0.103112	-0.002990	0.001135	-0.001482
00157	13775717	-0.291237	9.829692	0.116447	-0.001977	0.001872	0.002369
00158	13775767	-0.308697	9.812405	0.116049	-0.002735	-0.000930	-0.001037
00159	13775817	-0.289209	9.793842	0.119852	-0.003005	0.001849	0.000352
00160	13775867	-0.285120	9.791307	0.118140	-0.004097	0.001729	-0.002242
00161	13775917	-0.298779	9.804708	0.115616	-0.005055	-0.001121	0.002039
00162	13775967	-0.294226	9.833887	0.119120	-0.004157	0.000696	-0.000966
00163	13776017	-0.300149	9.834867	0.112235	-0.003760	-0.002913	-0.000665
00164	13776067	-0.286320	9.825091	0.111060	-0.006764	0.002366	0.001068
00165	13776117	-0.296107	9.823894	0.104068	-0.002591	0.003954	0.001100
00166	13776167	-0.294872	9.822428	0.123416	-0.002892	0.001940	-0.003428
00167	13776217	-0.305598	9.829179	0.123206	-0.009711	-0.001658	0.000063
00168	13776267	-0.295869	9.821246	0.106993	-0.006817	-0.000317	-0.001027
00169	13776317	-0.304715	9.815091	0.113837	0.000167	-0.000655	-0.002588
00170	13776367	-0.310183	9.811995	0.126014	-0.005934	0.000215	-0.001443
00171	13776417	-0.303700	9.811932	0.119903	-0.005871	0.001347	0.000775
00172	13776467	-0.291786	9.806540	0.110061	-0.004601	0.004560	-0.003508
00173	13776517	-0.292527	9.838411	0.103484	-0.001672	-0.000101	-0.001585
00174	13776567	-0.313118	9.837255	0.116402	-0.004668	0.000525	-0.002757
00175	13776617	-0.304457	9.835241	0.115600	-0.004978	0.002426	-0.001401
00176	13776667	-0.307410	9.829999	0.098824	-0.003508	0.000448	-0.000964
00177	13776717	-0.313494	9.836873	0.109932	-0.005607	-0.000008	-0.000739
00178	13776767	-0.283805	9.805935	0.093751	-0.005865	0.000790	-0.002978
00179	13776817	-0.298994	9.814135	0.104102	-0.004237	-0.000180	-0.002991
00180	13776867	-0.285238	9.810979	0.104047	-0.005732	-0.001104	-0.000045
00181	13776917	-0.302421	9.822581	0.122314	-0.004592	-0.000732	0.000340
00182	13776967	-0.281860	9.802558	0.114500	-0.004075	-0.001687	0.002321
00183	13777017	-0.293772	9.815521	0.110493	-0.004334	0.001178	-0.000677
00184	13777067	-0.301850	9.814793	0.120394	-0.004089	0.002538	-0.001211
00185	13777117	-0.277196	9.790511	0.114733	-0.002336	0.001962	0.001115
00186	13777167	-0.291343	9.835179	0.114762	-0.001369	0.000524	-0.000235
00187	13777217	-0.317799	9.846393	0.104258	-0.006818	0.003205	0.001878
00188	13777267	-0.284554	9.816604	0.109543	-0.006010	0.001300	-0.005636
00189	13777317	-0.310379	9.825190	0.100943	-0.001449	0.002133	-0.000291
00190	13777367	-0.297565	9.799397	0.122138	-0.005642	0.001418	0.002379
00191	13777417	-0.317572	9.813000	0.116575	-0.001623	0.002418	-0.002950
00192	13777467	-0.310223	9.825444	0.115114	-0.002378	0.002414	0.001381
00193	13777517	-0.310061	9.811783	0.108677	-0.004783	0.001366	0.000004
00194	13777567	-0.301894	9.821117	0.094854	-0.009078	0.001215	-0.003705
00195	13777617	-0.303751	9.823294	0.121606	-0.005301	0.003780	0.000851
00196	13777667	-0.300733	9.827713	0.099151	-0.007221	-0.000652	-0.001606
00197	13777717	-0.297994	9.826783	0.115322	-0.002389	0.002239	-0.003365
00198	13777767	-0.295083	9.831849	0.096610	-0.002626	-0.002576	-0.003964
00199	13777817	-0.306383	9.843694	0.103788	-0.001668	0.001969	0.001055
00200	13777867	-0.287714	9.825888	0.120414	-0.007618	-0.001273	-0.001288
00201	13777917	-0.304744	9.821019	0.114448	-0.006203	0.000561	-0.001185
00202	13777967	-0.294295	9.806715	0.111851	-0.009032	0.003227	0.000794
00203	13778017	-0.305081	9.810872	0.110785	-0.002544	-0.000887	-0.001299
00204	13778067	-0.292966	9.798562	0.102925	-0.004216	0.000566	0.000540
00205	13778117	-0.300371	9.828032	0.093762	-0.004339	0.000471	0.001472
00206	13778167	-0.297157	9.824875	0.100994	-0.004543	0.000655	-0.001637
00207	13778217	-0.319030	9.835435	0.106575	-0.002840	0.003428	-0.003003
00208	13778267	-0.303579	9.823892	0.098289	-0.002032	0.001919	-0.004648
00209	13778317	-0.286712	9.835473	0.114615	-0.006562	-0.001583	-0.005426
00210	13778367	-0.298827	9.819779	0.122294	-0.004136	-0.005116	-0.000194
00211	13778417	-0.294406	9.799229	0.104484	-0.002684	0.001790	0.000283
00212	13778467	-0.303641	9.823892	0.113464	-0.003181	0.000868	-0.003786
00213	13778517	-0.283552	9.807673	0.104215	-0.001451	0.002068	-0.000966
00214	13778567	-0.283758	9.807529	0.113799	-0.003492	0.002266	0.002149
00215	13778617	-0.274821	9.807140	0.115248	-0.003495	0.000934	-0.001993
00216	13778667	-0.292899	9.809687	0.104796	-0.004406	0.003432	-0.002491
00217	13778717	-0.296205	9.820433	0.128506	-0.004577	0.001916	-0.000827
00218	13778767	-0.301559	9.822206	0.132374	-0.001964	-0.000817	0.000301
00219	13778817	-0.270866	9.811789	0.140432	-0.005883	0.000237	-0.005227
00220	13778867	-0.283350	9.823639	0.115554	-0.006571	0.003304	-0.000591
00221	13778917	-0.293110	9.824180	0.118738	-0.006571	-0.000700	0.000253
00222	13778967	-0.302434	9.831287	0.111799	-0.005947	-0.001139	0.002106
00223	13779017	-0.278329	9.804646	0.104967	-0.004019	0.000274	-0.001034
00224	13779067	-0.291832	9.814497	0.117432	-0.002826	-0.004317	-0.001348
00225	13779117	-0.272875	9.803129	0.115645	-0.001661	0.001609	-0.001515
00226	13779167	-0.295315	9.830283	0.105747	-0.004981	0.003456	-0.002452
00227	13779217	-0.312298	9.833201	0.118589	-0.004692	0.001561	-0.000797
00228	13779267	-0.283933	9.810837	0.114226	-0.002277	0.001796	-0.001574
00229	13779317	-0.298443	9.823195	0.116578	-0.005275	0.002315	-0.004572
00230	13779367	-0.314922	9.837197	0.103107	-0.008619	0.000001	-0.001466
00231	13779417	-0.296931	9.835176	0.125925	-0.006668	-0.000963	-0.001734
00232	13779467	-0.315224	9.838882	0.116662	-0.005540	0.002193	0.000364
00233	13779517	-0.294272	9.815036	0.110829	-0.005938	-0.002185	-0.004724
00234	13779567	-0.296779	9.832170	0.105265	-0.003650	-0.001265	-0.000877
00235	13779617	-0.282446	9.812685	0.103352	-0.005610	0.002157	-0.000888
00236	13779667	-0.293362	9.807285	0.106715	-0.004727	-0.003836	-0.001180
00237	13779717	-0.306517	9.826093	0.122546	-0.002788	-0.000183	-0.000233
00238	13779767	-0.288753	9.804201	0.109744	-0.003333	-0.001062	0.000335
00239	13779817	-0.308742	9.825414	0.087557	-0.003642	-0.001588	-0.001904
00240	13779867	-0.280967	9.815066	0.119716	-0.002340	0.001621	-0.004552
00241	13779917	-0.293389	9.813939	0.105489	-0.003193	0.001742	0.000101
00242	13779967	-0.309326	9.834879	0.119732	-0.005849	0.000433	-0.003427
00243	13780017	-0.299187	9.827374	0.106504	-0.004584	-0.001390	-0.004178
00244	13780067	-0.302021	9.817506	0.113724	-0.007259	-0.000294	0.000452
00245	13780117	-0.306616	9.820592	0.109856	-0.002541	0.001238	0.000767
00246	13780167	-0.290006	9.799722	0.122985	-0.004447	0.001752	-0.000924
00247	13780217	-0.288778	9.807959	0.097126	-0.005489	0.001216	-0.001886
00248	13780267	-0.292572	9.806700	0.098812	-0.005940	0.000464	0.000098
00249	13780317	-0.282748	9.822355	0.091464	-0.001065	-0.000158	-0.001202
00250	13780367	-0.298205	9.816795	0.101477	-0.004335	0.000075	-0.002117
00251	13780417	-0.293684	9.805047	0.097614	-0.004347	0.001530	-0.000927
00252	13780467	-0.314167	9.813276	0.101327	-0.004347	0.001558	-0.001565
00253	13780517	-0.296153	9.815845	0.118157	-0.003275	0.001159	-0.001604
00254	13780567	-0.297307	9.818542	0.111523	-0.002597	0.003073	-0.000855
00255	13780617	-0.293752	9.823540	0.113677	-0.005274	-0.000033	0.003525
00256	13780667	-0.304184	9.812666	0.102663	-0.002511	-0.002093	-0.003354
00257	13780717	-0.295280	9.808240	0.104541	-0.003592	-0.003172	-0.001401
00258	13780767	-0.293089	9.814186	0.121113	-0.005525	0.001345	-0.002332
00259	13780817	-0.284252	9.808734	0.127505	-0.005308	0.000443	-0.003076
00260	13780867	-0.307862	9.816232	0.114699	-0.004607	0.003781	-0.002611
00261	13780917	-0.289252	9.822145	0.115460	-0.000973	0.004303	0.000360
00262	13780967	-0.309774	9.830704	0.112725	-0.002079	0.001157	0.003683
00263	13781017	-0.299724	9.813560	0.109616	-0.003705	0.000243	-0.003529
00264	13781067	-0.290656	9.831934	0.125044	-0.002775	0.001652	-0.000096
00265	13781117	-0.305054	9.833234	0.122155	-0.005262	0.003184	-0.003379
00266	13781167	-0.306209	9.831481	0.127140	-0.006530	0.008038	-0.003576
00267	13781217	-0.296725	9.817154	0.109602	-0.004466	0.004826	0.003131
00268	13781267	-0.276285	9.809247	0.115962	-0.004064	-0.000046	0.000700
00269	13781317	-0.311925	9.820397	0.102418	-0.001675	0.001927	-0.003623
00270	13781367	-0.277669	9.790546	0.112346	-0.004458	0.002270	-0.000443
00271	13781417	-0.297352	9.823118	0.106893	-0.000951	0.001393	-0.001863
00272	13781467	-0.298952	9.821043	0.132797	-0.002843	-0.000514	-0.001360
00273	13781517	-0.278928	9.792437	0.111925	-0.004178	0.000205	-0.002568
00274	13781567	-0.321631	9.849039	0.098924	-0.004450	-0.001316	-0.001226
00275	13781617	-0.300388	9.835671	0.121374	-0.004244	-0.002466	0.002225
00276	13781667	-0.298957	9.832615	0.105334	0.001188	0.000557	-0.001746
00277	13781717	-0.317765	9.816081	0.100775	-0.002747	0.000519	-0.003371
00278	13781767	-0.295813	9.809513	0.113838	-0.002455	0.000529	-0.000391
00279	13781817	-0.287162	9.816186	0.087703	-0.001396	0.002421	-0.000834
00280	13781867	-0.295207	9.821384	0.082608	-0.007387	-0.002363	0.001337
00281	13781917	-0.297178	9.826924	0.106802	-0.006428	0.003783	-0.001229
00282	13781967	-0.296259	9.815786	0.106443	-0.002187	0.000177	-0.000810
00283	13782017	-0.281750	9.806920	0.108810	-0.005046	0.000250	-0.003693
00284	13782067	-0.281190	9.808879	0.104683	-0.003155	0.000389	0.000279
00285	13782117	-0.298980	9.824705	0.110651	-0.005654	0.001834	0.002575
00286	13782167	-0.316166	9.827117	0.140564	-0.005032	0.005293	-0.000709
00287	13782217	-0.281989	9.820214	0.092486	-0.003554	-0.000205	-0.000844
00288	13782267	-0.297454	9.815245	0.110128	-0.005081	0.000843	0.002153
00289	13782317	-0.306950	9.807977	0.112463	-0.003436	0.001252	0.000032
00290	13782367	-0.309113	9.815170	0.105094	-0.003317	-0.001518	0.001171
00291	13782417	-0.305675	9.820633	0.107983	-0.006019	-0.000151	-0.000802
00292	13782467	-0.299274	9.812896	0.106857	-0.001594	-0.000256	0.001946
00293	13782517	-0.288915	9.813531	0.120660	-0.006948	0.001297	0.003311
00294	13782567	-0.294997	9.836353	0.081752	-0.003737	0.001603	-0.000284
00295	13782617	-0.291833	9.824679	0.102247	0.000844	0.000586	0.000595
00296	13782667	-0.297011	9.818907	0.103624	-0.003740	0.001603	-0.000734
00297	13782717	-0.309141	9.823712	0.120659	-0.003374	0.001122	-0.002018
00298	13782767	-0.299563	9.817827	0.110133	-0.005180	-0.000561	-0.003690
00299	13782817	-0.297933	9.834383	0.114906	-0.005320	-0.000778	0.001854
00300	13782867	-0.291537	9.817527	0.105258	-0.005347	0.005095	-0.000329
00301	13782917	-0.286498	9.815382	0.094256	-0.006600	-0.001997	-0.000332
00302	13782967	-0.274982	9.810038	0.097020	-0.004154	0.003465	-0.002583
00303	13783017	-0.297661	9.815561	0.120150	-0.005028	-0.001393	-0.002448
00304	13783067	-0.291798	9.818776	0.100970	-0.005705	0.002018	-0.001881
00305	13783117	-0.314369	9.817116	0.097823	-0.001276	0.003549	-0.003070
00306	13783167	-0.295209	9.826293	0.102567	-0.001961	0.002279	0.000832
00307	13783217	-0.287123	9.826962	0.097220	-0.006992	0.001251	-0.002169
00308	13783267	-0.282167	9.796860	0.098592	-0.008923	0.002839	0.000023
00309	13783317	-0.290894	9.818697	0.106803	-0.007784	0.001015	-0.000823
00310	13783367	-0.313711	9.834622	0.117327	-0.003369	0.001290	0.000161
00311	13783417	-0.303427	9.814052	0.105572	-0.006664	-0.000191	-0.000768
00312	13783467	-0.299733	9.811425	0.093742	-0.001013	-0.001866	-0.000341
00313	13783517	-0.291311	9.802234	0.096815	-0.003145	-0.000063	0.000025
00314	13783567	-0.293678	9.810987	0.112155	-0.001967	0.000083	-0.001261
00315	13783617	-0.288380	9.805450	0.121537	-0.003889	0.001475	0.001091
00316	13783667	-0.293255	9.806867	0.103159	-0.004316	-0.000213	0.001757
00317	13783717	-0.297918	9.831131	0.094791	-0.006703	-0.001810	-0.001863
00318	13783767	-0.283663	9.811917	0.121455	-0.003837	0.002028	0.002728
00319	13783817	-0.295645	9.830065	0.135164	-0.001827	-0.001135	0.000751
00320	13783867	-0.290590	9.826643	0.130353	-0.003661	0.001481	0.001510
00321	13783917	-0.309469	9.818998	0.103373	-0.003643	0.000504	-0.001831
00322	13783967	-0.301337	9.831730	0.114952	-0.005484	-0.000112	-0.003786
00323	13784017	-0.295096	9.807684	0.109454	-0.001423	0.004125	-0.003292
00324	13784067	-0.292187	9.823539	0.115145	-0.006027	-0.000023	-0.001860
00325	13784117	-0.307251	9.815298	0.114245	-0.005627	0.003832	0.000117
00326	13784167	-0.290672	9.819891	0.106510	-0.007548	0.000598	-0.001436
00327	13784217	-0.301136	9.820790	0.101421	-0.003145	0.001998	-0.002590
00328	13784267	-0.286326	9.819318	0.100987	-0.007620	-0.000150	-0.002243
00329	13784317	-0.295213	9.840903	0.109315	-0.003327	0.001904	0.000421
00330	13784367	-0.301075	9.839702	0.105987	-0.003828	-0.001526	0.000370
00331	13784417	-0.312611	9.828477	0.101474	-0.002702	0.002298	-0.000765
00332	13784467	-0.318673	9.815718	0.107978	-0.001951	0.002798	-0.000760
00333	13784517	-0.297393	9.811506	0.106246	-0.005534	-0.001494	-0.001098
00334	13784567	-0.284048	9.804006	0.111288	-0.005943	0.000467	-0.000384
00335	13784617	-0.290786	9.816532	0.093257	-0.002850	0.000712	-0.002155
00336	13784667	-0.301344	9.802400	0.093528	-0.003546	-0.000525	-0.001615
00337	13784717	-0.291861	9.820504	0.111960	-0.003172	0.001901	-0.002050
00338	13784767	-0.296530	9.832410	0.120403	-0.003979	-0.000854	-0.000011
00339	13784817	-0.302899	9.821037	0.114662	-0.004988	0.001678	-0.001500
00340	13784867	-0.313190	9.831748	0.103861	-0.002950	-0.002064	-0.000913
00341	13784917	-0.309797	9.814597	0.111646	-0.005996	0.002442	0.001939
00342	13784967	-0.300204	9.819562	0.120185	-0.004578	0.000974	0.000130
00343	13785017	-0.289088	9.807873	0.102574	-0.002050	0.000662	-0.001323
00344	13785067	-0.301536	9.816893	0.107458	-0.003701	0.000609	0.000320
00345	13785117	-0.289315	9.800077	0.130894	-0.006022	0.002278	0.000684
00346	13785167	-0.299059	9.802925	0.107615	-0.003246	0.001124	-0.001957
00347	13785217	-0.290347	9.804591	0.114183	-0.004858	-0.000746	-0.003473
00348	13785267	-0.290477	9.819287	0.114676	-0.007264	0.004996	-0.000803
00349	13785317	-0.294090	9.824260	0.112697	-0.005766	0.002050	-0.000630
00350	13785367	-0.300963	9.821500	0.101474	-0.005016	0.003381	-0.004983
00351	13785417	-0.299784	9.823639	0.117727	-0.004423	0.003044	-0.001330
00352	13785467	-0.276761	9.825490	0.124174	-0.006466	0.003944	-0.002348
00353	13785517	-0.296275	9.831718	0.104107	-0.004578	0.003880	-0.001747
00354	13785567	-0.292085	9.814475	0.118183	-0.003001	0.002781	0.000008
00355	13785617	-0.293386	9.803423	0.095739	-0.006317	0.000173	-0.000060
00356	13785667	-0.292279	9.807014	0.109549	-0.002640	0.005036	-0.005303
00357	13785717	-0.309727	9.820928	0.100480	-0.002158	0.000078	-0.002735
00358	13785767	-0.285277	9.822783	0.107790	-0.001717	0.001249	-0.002733
00359	13785817	-0.291868	9.813625	0.096339	-0.001220	0.003070	-0.000221
00360	13785867	-0.318200	9.828461	0.113261	-0.003568	-0.000656	-0.000650
00361	13785917	-0.294703	9.829238	0.112707	-0.005761	0.000592	-0.004260
00362	13785967	-0.291526	9.828698	0.119446	-0.006433	0.001748	-0.001466
00363	13786017	-0.310877	9.840155	0.099275	-0.002137	0.001468	-0.000800
00364	13786067	-0.310239	9.837405	0.108866	-0.000765	0.001489	-0.003850
00365	13786117	-0.282312	9.834508	0.087932	-0.004797	-0.001190	0.001498
00366	13786167	-0.293376	9.825956	0.110787	-0.003333	0.002097	-0.000762
00367	13786217	-0.307791	9.821638	0.102616	-0.001983	0.002826	-0.000378
00368	13786267	-0.287076	9.818316	0.103432	-0.000995	-0.002453	-0.001597
00369	13786317	-0.308076	9.819205	0.121248	0.000733	0.001841	-0.001931
00370	13786367	-0.315201	9.820878	0.115137	-0.003100	-0.001255	0.000404
00371	13786417	-0.308306	9.841542	0.103586	-0.000826	0.001492	-0.001191
00372	13786467	-0.313013	9.830470	0.094591	-0.006460	-0.000249	0.000129
00373	13786517	-0.297833	9.821779	0.116761	-0.002971	-0.000155	0.001659
00374	13786567	-0.306439	9.810270	0.133403	-0.004795	0.002648	-0.001784
00375	13786617	-0.303117	9.822418	0.101647	-0.001945	0.002242	-0.004582
00376	13786667	-0.290694	9.822922	0.110232	-0.003091	-0.005905	-0.000007
00377	13786717	-0.286094	9.816389	0.122219	-0.004169	-0.001787	0.001104
00378	13786767	-0.313345	9.827558	0.098298	0.000365	0.002288	-0.001924
00379	13786817	-0.309279	9.820606	0.106644	-0.007895	0.003398	-0.002475
00380	13786867	-0.294204	9.813723	0.119234	-0.005959	0.001012	-0.000669
00381	13786917	-0.289592	9.803360	0.118213	-0.004946	-0.000712	-0.001320
00382	13786967	-0.288329	9.818695	0.109092	-0.006788	0.001904	-0.002138
00383	13787017	-0.277718	9.803610	0.127218	-0.004245	0.005597	-0.001641
00384	13787067	-0.315919	9.822385	0.109003	-0.005736	0.002214	0.000688
00385	13787117	-0.308990	9.821053	0.108950	-0.004932	-0.001194	-0.001288
00386	13787167	-0.309520	9.829281	0.097610	-0.002957	-0.001936	-0.001233
00387	13787217	-0.302646	9.811733	0.102753	-0.007504	0.002378	-0.001265
00388	13787267	-0.302428	9.822847	0.120941	-0.006904	0.000741	-0.000315
00389	13787317	-0.301456	9.809560	0.106279	-0.005669	-0.000108	0.000096
00390	13787367	-0.278502	9.793599	0.113774	-0.001691	0.000343	-0.003089
00391	13787417	-0.304788	9.815498	0.103168	-0.003876	-0.000140	-0.000228
00392	13787467	-0.301735	9.804046	0.125080	-0.001395	-0.004841	-0.000294
00393	13787517	-0.303485	9.827982	0.125651	-0.003449	-0.001493	-0.001040
00394	13787567	-0.292686	9.809460	0.104336	-0.005157	0.001964	-0.001241
00395	13787617	-0.295448	9.823168	0.105754	-0.004082	-0.001920	-0.001167
00396	13787667	-0.300080	9.801009	0.108146	-0.003788	0.001687	-0.006627
00397	13787717	-0.298294	9.823627	0.088679	-0.003142	0.001702	-0.004230
00398	13787767	-0.299505	9.838330	0.087836	-0.003915	0.000720	-0.005801
00399	13787817	-0.295280	9.824105	0.122110	-0.006835	-0.001646	-0.000519
00400	13787867	-0.305576	9.811441	0.104161	-0.005668	-0.001305	-0.002186
00401	13787917	-0.299242	9.823988	0.111013	-0.003990	0.000473	0.000735
00402	13787967	-0.309356	9.830841	0.104629	-0.004635	0.002655	0.000011
00403	13788017	-0.293141	9.831587	0.115143	-0.005192	-0.000004	-0.000516
00404	13788067	-0.292692	9.819420	0.104701	-0.003278	0.000520	0.001825
00405	13788117	-0.298015	9.821907	0.123922	-0.002741	-0.000937	-0.003859
00406	13788167	-0.290185	9.823028	0.102790	-0.002605	-0.000896	-0.000560
00407	13788217	-0.303511	9.814439	0.111319	-0.004690	0.002193	-0.002843
00408	13788267	-0.285323	9.803411	0.118167	-0.003677	0.003570	-0.002425
00409	13788317	-0.297998	9.822962	0.101502	-0.007261	0.000864	0.000778
00410	13788367	-0.305775	9.817029	0.110885	-0.006225	-0.000467	0.001635
00411	13788417	-0.296670	9.819049	0.110100	-0.005713	0.005276	-0.002635
00412	13788467	-0.315148	9.814491	0.114023	-0.004344	-0.000505	-0.000615
00413	13788517	-0.313354	9.820800	0.106269	-0.002673	-0.003099	-0.004413
00414	13788567	-0.289679	9.810222	0.118889	-0.004673	0.000779	-0.001571
00415	13788617	-0.316702	9.836370	0.124586	-0.006277	-0.000124	-0.002497
00416	13788667	-0.300382	9.822546	0.111275	-0.003412	0.001809	0.003082
00417	13788717	-0.315411	9.834377	0.116453	-0.005116	-0.001585	-0.001548
00418	13788767	-0.301364	9.825442	0.122571	-0.004689	-0.003130	-0.003224
00419	13788817	-0.290125	9.819825	0.095656	-0.004762	0.000449	-0.002889
00420	13788867	-0.304667	9.837371	0.115448	-0.006965	-0.000448	0.000868
00421	13788917	-0.314299	9.817173	0.125778	-0.005167	0.002224	-0.000950
00422	13788967	-0.283010	9.807360	0.125399	-0.004794	-0.000382	0.000218
00423	13789017	-0.289551	9.827441	0.110035	-0.006456	0.000422	-0.001920
00424	13789067	-0.289690	9.813310	0.088096	-0.008195	-0.001150	0.000481
00425	13789117	-0.294084	9.807418	0.113084	-0.008912	0.001349	-0.001331
00426	13789167	-0.313106	9.816138	0.116645	-0.005852	-0.000442	-0.002310
00427	13789217	-0.308060	9.827822	0.132169	-0.004150	-0.000634	-0.000745
00428	13789267	-0.298024	9.817673	0.105995	-0.003406	0.002022	-0.003810
00429	13789317	-0.287957	9.821597	0.121301	-0.004910	0.002093	-0.003038
00430	13789367	-0.285345	9.813564	0.105418	-0.002422	0.000331	-0.001965
00431	13789417	-0.293813	9.814272	0.114415	-0.006931	0.002283	-0.003868
00432	13789467	-0.292106	9.819779	0.112459	-0.002911	0.005913	-0.001065
00433	13789517	-0.319739	9.840238	0.117536	-0.003120	0.002556	0.000137
00434	13789567	-0.291427	9.805509	0.115750	-0.002859	0.000104	-0.000713
00435	13789617	-0.289544	9.815505	0.130419	-0.004551	0.002076	-0.000119
00436	13789667	-0.285084	9.796959	0.105662	-0.003094	0.004619	0.000656
00437	13789717	-0.309291	9.835598	0.118983	-0.005516	0.000312	0.000065
00438	13789767	-0.285119	9.811895	0.121697	-0.001746	0.000546	0.001114
00439	13789817	-0.311640	9.815884	0.119295	-0.005146	-0.001586	-0.001327
00440	13789867	-0.287846	9.820081	0.096148	-0.004737	0.001112	0.002018
00441	13789917	-0.310090	9.828648	0.107692	-0.002104	0.001312	-0.002375
00442	13789967	-0.296084	9.819960	0.097861	-0.006177	-0.000243	-0.000996
00443	13790017	-0.311173	9.826724	0.092875	-0.003427	0.001674	-0.003172
00444	13790067	-0.306039	9.820303	0.098191	-0.005840	-0.000589	0.001729
00445	13790117	-0.312977	9.850308	0.116098	-0.004707	-0.003248	-0.000760
00446	13790167	-0.287559	9.795280	0.120302	-0.001832	-0.000938	-0.000212
00447	13790217	-0.304923	9.801716	0.104414	-0.005718	0.000507	-0.000513
00448	13790267	-0.292242	9.830685	0.112937	-0.003253	0.001454	-0.000383
00449	13790317	-0.296590	9.820349	0.102744	-0.002225	0.007574	-0.001095
00450	13790367	-0.307085	9.813489	0.124216	-0.003488	-0.000291	-0.002222
00451	13790417	-0.309405	9.821186	0.130523	-0.004200	-0.000047	-0.002827
00452	13790467	-0.292038	9.818209	0.106293	-0.006048	-0.001209	-0.000683
00453	13790517	-0.294442	9.807657	0.097386	-0.004592	0.003467	-0.000243
00454	13790567	-0.289159	9.844019	0.111951	-0.004670	-0.000416	-0.003986
00455	13790617	-0.294242	9.812632	0.128140	0.000419	0.001712	-0.000814
00456	13790667	-0.289965	9.806212	0.102131	-0.004230	0.000987	-0.000228
00457	13790717	-0.288489	9.815084	0.112869	-0.003728	0.002290	-0.001342
00458	13790767	-0.319127	9.820207	0.124805	-0.005734	0.003157	-0.001232
00459	13790817	-0.285682	9.814073	0.118687	-0.004767	0.002655	-0.002042
00460	13790867	-0.292097	9.822598	0.114352	-0.005122	0.004304	0.002871
00461	13790917	-0.308538	9.835961	0.126987	-0.006524	0.004084	0.000826
00462	13790967	-0.307359	9.838886	0.107520	-0.004561	0.003335	-0.003222
00463	13791017	-0.297410	9.810652	0.115946	-0.008264	0.001278	0.000943
00464	13791067	-0.293694	9.811148	0.117541	-0.004508	0.001695	-0.000059
00465	13791117	-0.298670	9.826928	0.105284	-0.004672	0.001456	-0.003140
00466	13791167	-0.283975	9.796109	0.115566	-0.005537	0.002803	-0.001657
00467	13791217	-0.295749	9.817659	0.108561	-0.002457	0.000138	-0.004400
00468	13791267	-0.302092	9.837684	0.112731	-0.004216	-0.002497	0.000397
00469	13791317	-0.304471	9.820266	0.117627	-0.006729	0.001238	0.000905
00470	13791367	-0.297632	9.814247	0.128500	-0.001835	0.000159	-0.000717
00471	13791417	-0.285220	9.822473	0.112917	-0.004381	-0.001532	-0.001488
00472	13791467	-0.288756	9.812734	0.110781	-0.006259	0.001107	-0.004451
00473	13791517	-0.295495	9.824927	0.114562	-0.003668	0.001352	-0.000737
00474	13791567	-0.300716	9.831478	0.100547	-0.005072	0.002559	0.000875
00475	13791617	-0.301748	9.818279	0.094283	-0.003780	0.007063	-0.001732
00476	13791667	-0.289597	9.811398	0.104450	-0.003430	-0.002131	-0.000498
00477	13791717	-0.295278	9.810647	0.102332	-0.003237	0.001941	-0.001794
00478	13791767	-0.318932	9.832404	0.103016	-0.006596	0.000747	-0.001629
00479	13791817	-0.309502	9.834880	0.118951	-0.002824	-0.002085	-0.000948
00480	13791867	-0.293124	9.815706	0.114628	-0.005800	0.000858	-0.003943
00481	13791917	-0.283069	9.822411	0.103272	-0.004230	0.003857	-0.003351
00482	13791967	-0.301099	9.819404	0.114223	-0.006763	0.001238	0.001258
00483	13792017	-0.288878	9.810334	0.112411	-0.006053	-0.002275	-0.001651
00484	13792067	-0.308369	9.827462	0.108970	-0.007351	-0.000552	0.000063
00485	13792117	-0.304236	9.836448	0.114390	-0.003125	0.001393	-0.002051
00486	13792167	-0.313518	9.849549	0.118270	-0.002559	-0.002473	-0.002397
00487	13792217	-0.302990	9.827382	0.118470	-0.004511	0.001853	-0.001534
00488	13792267	-0.302349	9.817412	0.119681	-0.004805	0.002045	-0.000636
00489	13792317	-0.308799	9.820407	0.119660	-0.000065	0.000833	-0.001098
00490	13792367	-0.293077	9.816051	0.107447	-0.005449	0.002897	-0.003357
00491	13792417	-0.285013	9.811787	0.098032	-0.003640	0.004743	0.000466
00492	13792467	-0.297168	9.801686	0.112245	-0.003047	0.002908	-0.002879
00493	13792517	-0.304721	9.810117	0.098192	-0.006033	-0.000688	-0.000614
00494	13792567	-0.295217	9.816933	0.110062	-0.002946	-0.002419	-0.003870
00495	13792617	-0.309150	9.828702	0.120163	-0.005075	0.003688	-0.000176
00496	13792667	-0.283183	9.837189	0.098268	-0.004219	0.002731	-0.000247
00497	13792717	-0.296716	9.813262	0.101033	-0.006684	0.000586	-0.000127
00498	13792767	-0.286988	9.803261	0.095589	-0.002377	0.001054	-0.000841
00499	13792817	-0.303614	9.836071	0.092807	-0.003405	0.000225	0.000155
00500	13792867	-0.294500	9.804850	0.109356	-0.003017	-0.000991	-0.000306
00501	13792917	-0.294377	9.826828	0.115245	-0.001999	0.002056	-0.002531
00502	13792967	-0.288636	9.809880	0.111128	0.000206	0.002329	-0.000650
00503	13793017	-0.291462	9.825719	0.097097	-0.004023	0.001337	-0.004585
00504	13793067	-0.315496	9.825094	0.118313	-0.005844	0.001738	0.001515
00505	13793117	-0.290512	9.822185	0.111492	-0.004327	0.000856	-0.001603
00506	13793167	-0.280092	9.816843	0.097501	-0.002957	0.002140	-0.001154
00507	13793217	-0.306650	9.820832	0.109570	-0.001139	-0.000637	-0.001205
00508	13793267	-0.282054	9.805255	0.124555	-0.002807	-0.003866	-0.002179
00509	13793317	-0.276481	9.814499	0.098013	-0.004797	0.000652	-0.001863
00510	13793367	-0.291505	9.798334	0.103849	-0.006589	-0.000378	0.000127
00511	13793417	-0.294778	9.810158	0.103910	-0.006735	-0.000930	-0.000516
00512	13793467	-0.296679	9.821472	0.107000	-0.005843	0.000277	-0.001892
00513	13793517	-0.290797	9.801686	0.133298	-0.005277	0.002906	0.000172
00514	13793567	-0.291655	9.827016	0.105226	-0.003805	0.001769	-0.001056
00515	13793617	-0.308043	9.824952	0.133882	-0.004437	0.002470	-0.001655
00516	13793667	-0.287271	9.839359	0.093005	-0.004456	-0.002219	-0.003418
00517	13793717	-0.287484	9.810081	0.114584	-0.004787	0.001432	-0.001024
00518	13793767	-0.311769	9.827461	0.137485	-0.005119	0.000107	0.003140
00519	13793817	-0.292918	9.829813	0.107177	-0.005370	0.006776	-0.001283
00520	13793867	-0.296331	9.799305	0.113560	-0.002887	0.002240	0.001188
00521	13793917	-0.287338	9.802588	0.108169	-0.004466	-0.001823	-0.000627
00522	13793967	-0.296668	9.816877	0.096997	-0.008237	0.000536	0.003342
00523	13794017	-0.316262	9.809042	0.112512	-0.001745	0.002491	-0.000127
00524	13794067	-0.295807	9.821349	0.115852	-0.002796	-0.000057	-0.004404
00525	13794117	-0.290906	9.817128	0.100949	-0.005267	-0.001975	-0.004055
00526	13794167	-0.301123	9.814319	0.121451	-0.007517	0.003836	-0.001448
00527	13794217	-0.313747	9.820418	0.099652	-0.006202	0.001532	-0.002015
00528	13794267	-0.299885	9.821291	0.100948	-0.003332	0.004041	-0.000657
00529	13794317	-0.286304	9.814901	0.110541	-0.007250	0.004581	-0.000489
00530	13794367	-0.305224	9.826205	0.100424	-0.000742	0.001819	-0.002857
00531	13794417	-0.306595	9.822924	0.112577	-0.006842	-0.000215	0.001093
00532	13794467	-0.289769	9.829813	0.094508	-0.005000	-0.000030	-0.001607
00533	13794517	-0.295979	9.813019	0.101524	-0.007430	0.003257	0.000918
00534	13794567	-0.292675	9.820812	0.106400	-0.002401	-0.000571	-0.003733
00535	13794617	-0.301746	9.826841	0.108587	-0.002102	-0.002921	-0.003137
00536	13794667	-0.284750	9.819263	0.106118	-0.003091	-0.000838	-0.002516
00537	13794717	-0.303200	9.824224	0.092127	-0.002949	0.005209	0.000373
00538	13794767	-0.295176	9.817895	0.109080	-0.003883	0.001091	-0.000578
00539	13794817	-0.289108	9.814862	0.095129	-0.003719	0.003063	-0.000794
00540	13794867	-0.299571	9.824731	0.108665	-0.004484	0.003915	-0.001972
00541	13794917	-0.289224	9.813079	0.118862	-0.004517	0.000980	-0.001315
00542	13794967	-0.296985	9.830772	0.103566	-0.003961	-0.002788	-0.002233
00543	13795017	-0.290327	9.811482	0.113621	-0.004663	-0.000534	0.000310
00544	13795067	-0.303812	9.822113	0.105526	-0.002796	0.002078	-0.002944
00545	13795117	-0.296849	9.836260	0.116787	-0.005667	0.001030	0.001413
00546	13795167	-0.285261	9.808252	0.111426	-0.005107	0.002492	-0.000280
00547	13795217	-0.295843	9.837271	0.113414	-0.003389	0.000778	0.000732
00548	13795267	-0.317517	9.840569	0.097676	-0.004496	0.002272	-0.002427
00549	13795317	-0.307985	9.828897	0.108677	-0.004366	0.003244	-0.002200
00550	13795367	-0.287310	9.834339	0.110512	-0.004492	0.004276	-0.001392
00551	13795417	-0.278673	9.805269	0.126213	-0.001843	0.002392	0.000351
00552	13795467	-0.284921	9.812901	0.118447	-0.004728	0.004724	-0.000847
00553	13795517	-0.290572	9.797753	0.111806	-0.006904	-0.000247	0.001668
00554	13795567	-0.290044	9.810004	0.117425	-0.003529	0.003734	-0.006653
00555	13795617	-0.288024	9.815646	0.106910	-0.003885	0.001959	-0.004130
00556	13795667	-0.284803	9.813711	0.096496	-0.001419	0.003235	0.000034
00557	13795717	-0.308187	9.819915	0.106274	-0.001289	0.004403	0.000557
00558	13795767	-0.293726	9.810066	0.126126	-0.004312	0.002798	0.000363
00559	13795817	-0.285367	9.804087	0.104770	-0.006078	0.005026	-0.000007
00560	13795867	-0.299382	9.819328	0.105300	-0.004489	0.001051	-0.000159
00561	13795917	-0.296548	9.818463	0.102116	-0.003924	0.003510	0.000106
00562	13795967	-0.286419	9.814373	0.113900	-0.005521	0.000024	-0.003336
00563	13796017	-0.275171	9.821362	0.100119	-0.005324	0.005195	-0.002222
00564	13796067	-0.299322	9.804325	0.108855	-0.003272	0.000875	-0.002602
00565	13796117	-0.297847	9.823767	0.111230	-0.002427	0.000340	-0.002125
00566	13796167	-0.295290	9.815047	0.124754	-0.006436	0.000717	-0.003138
00567	13796217	-0.306939	9.822500	0.109142	-0.003002	0.000422	-0.003503
00568	13796267	-0.286487	9.800740	0.090151	-0.005642	-0.000039	-0.000709
00569	13796317	-0.291852	9.818360	0.112332	-0.001119	-0.001183	0.000333
00570	13796367	-0.288989	9.817494	0.109556	-0.005215	-0.000549	-0.002089
00571	13796417	-0.290269	9.822395	0.113800	-0.002047	0.003899	-0.000796
00572	13796467	-0.289852	9.816466	0.129687	-0.003437	0.003058	-0.003552
00573	13796517	-0.312472	9.836485	0.104850	-0.003650	0.001936	-0.000513
00574	13796567	-0.310767	9.847071	0.112307	-0.005102	-0.000704	-0.000581
00575	13796617	-0.286699	9.819068	0.101731	-0.007451	0.000805	0.000934
00576	13796667	-0.309401	9.822889	0.127824	-0.003719	0.001863	-0.002012
00577	13796717	-0.285045	9.812620	0.105703	-0.004428	0.001178	-0.000770
00578	13796767	-0.283546	9.806345	0.114093	-0.003485	-0.001354	0.000881
00579	13796817	-0.274969	9.819653	0.103768	-0.005258	0.001999	-0.002336
00580	13796867	-0.290903	9.823635	0.094250	-0.005671	0.000799	-0.002784
00581	13796917	-0.299755	9.824670	0.112468	-0.004932	0.003143	-0.000403
00582	13796967	-0.303307	9.832013	0.125674	-0.004984	0.000557	-0.001475
00583	13797017	-0.298869	9.824950	0.110350	-0.005171	0.001161	-0.002784
00584	13797067	-0.277479	9.810456	0.113792	-0.004216	-0.000594	-0.001521
00585	13797117	-0.291994	9.804784	0.115442	-0.000687	0.003278	-0.000957
00586	13797167	-0.288755	9.831478	0.094904	-0.003634	0.001388	0.000320
00587	13797217	-0.290411	9.798809	0.120285	-0.001954	-0.001294	-0.000145
00588	13797267	-0.287323	9.801127	0.110491	-0.003289	0.000580	0.000215
00589	13797317	-0.285813	9.820638	0.092706	-0.002660	0.002854	-0.002145
00590	13797367	-0.299563	9.825859	0.112235	-0.005192	0.002099	-0.000858
00591	13797417	-0.292050	9.819053	0.098064	-0.004897	0.002816	-0.001461
00592	13797467	-0.298693	9.829922	0.111231	-0.002093	0.003117	-0.003168
00593	13797517	-0.309953	9.831882	0.128488	-0.000177	0.001386	0.000852
00594	13797567	-0.304844	9.823952	0.124209	-0.003041	-0.000345	-0.000651
00595	13797617	-0.285871	9.811607	0.109251	-0.003568	0.000026	-0.004016
00596	13797667	-0.284296	9.830396	0.107413	-0.006246	0.001116	-0.000062
00597	13797717	-0.301761	9.807963	0.116795	-0.003085	-0.000736	0.000146
00598	13797767	-0.310279	9.827356	0.098566	-0.003759	0.002020	-0.004164
00599	13797817	-0.277864	9.804408	0.105224	-0.004917	-0.001772	-0.002132
00600	13797867	-0.305238	9.835505	0.113045	-0.006244	0.001752	-0.003900
00601	13797917	-0.291551	9.808692	0.109332	-0.004438	-0.001799	-0.003093
00602	13797967	-0.296850	9.826833	0.097611	-0.004684	0.003145	-0.000601
00603	13798017	-0.300274	9.818034	0.096261	-0.007250	0.000485	-0.000091
00604	13798067	-0.284185	9.823263	0.092956	-0.003803	0.005706	-0.002097
00605	13798117	-0.296871	9.824857	0.102694	-0.006672	0.003462	-0.000814
00606	13798167	-0.292377	9.823212	0.105186	-0.002303	-0.001564	-0.002424
00607	13798217	-0.294612	9.813943	0.104361	-0.005724	0.000636	-0.000545
00608	13798267	-0.297607	9.823045	0.111991	-0.004195	0.001956	-0.000572
00609	13798317	-0.292157	9.822177	0.110767	-0.004580	-0.002284	-0.000983
00610	13798367	-0.290260	9.822435	0.111595	-0.008032	0.004823	-0.003434
00611	13798417	-0.296220	9.814959	0.129706	-0.005383	0.003327	0.000592
00612	13798467	-0.305048	9.819493	0.105019	-0.002712	0.001995	0.004006
00613	13798517	-0.300953	9.840235	0.101672	-0.002916	-0.001319	-0.003671
00614	13798567	-0.296795	9.819764	0.094554	-0.007324	0.002673	-0.002611
00615	13798617	-0.306601	9.829022	0.116908	-0.007896	0.003600	-0.002959
00616	13798667	-0.292907	9.817026	0.106087	-0.009040	-0.000447	0.002441
00617	13798717	-0.278562	9.804872	0.105700	-0.005993	0.000922	-0.001602
00618	13798767	-0.291432	9.808886	0.112195	-0.003119	0.002597	0.001802
00619	13798817	-0.304396	9.814230	0.108694	-0.004014	0.001252	-0.000833
00620	13798867	-0.304290	9.803278	0.111496	-0.001821	0.001638	-0.002410
00621	13798917	-0.297211	9.814594	0.106226	-0.004890	0.005854	-0.001159
00622	13798967	-0.296882	9.825278	0.105710	-0.000889	0.000560	-0.000368
00623	13799017	-0.294159	9.830568	0.118899	-0.004128	0.000765	-0.000066
00624	13799067	-0.279293	9.818099	0.124133	-0.003564	0.003326	-0.000122
00625	13799117	-0.307051	9.828955	0.120851	-0.004484	-0.000048	-0.000998
00626	13799167	-0.306765	9.826450	0.114407	-0.002201	0.001344	-0.003016
00627	13799217	-0.305530	9.830108	0.108684	-0.005926	0.003058	-0.001650
00628	13799267	-0.303204	9.828753	0.121615	-0.004998	-0.000994	0.000248
00629	13799317	-0.308114	9.817257	0.124911	-0.000280	0.003637	-0.000060
00630	13799367	-0.302556	9.811943	0.120116	-0.002442	0.001922	-0.002564
00631	13799417	-0.322129	9.837979	0.108308	-0.006813	0.002516	-0.004949
00632	13799467	-0.307835	9.822302	0.105272	-0.003917	0.000086	-0.002476
00633	13799517	-0.283961	9.802428	0.105889	-0.002142	-0.001460	-0.001689
00634	13799567	-0.299034	9.828140	0.102942	-0.004380	-0.001337	0.000468
00635	13799617	-0.278078	9.830053	0.103946	-0.003988	0.001643	0.001825
00636	13799667	-0.300338	9.815344	0.100680	-0.000694	0.003406	-0.001662
00637	13799717	-0.275488	9.814227	0.116764	-0.007486	0.000601	-0.002722
00638	13799767	-0.298356	9.803620	0.109406	-0.005942	0.000079	-0.004490
00639	13799817	-0.298017	9.812012	0.119390	-0.002467	0.001790	-0.001892
00640	13799867	-0.314818	9.840317	0.100824	-0.004919	-0.001251	0.001785
00641	13799917	-0.291337	9.815705	0.115754	-0.002332	0.001890	-0.000545
00642	13799967	-0.310266	9.829980	0.097941	-0.004043	0.001208	-0.001856
00643	13800017	-0.308152	9.828999	0.117336	-0.005299	0.001612	-0.000441
00644	13800067	-0.299023	9.820940	0.108973	-0.007997	0.000817	-0.000822
00645	13800117	-0.300483	9.834826	0.114873	-0.004615	0.004034	-0.004021
00646	13800167	-0.313107	9.821011	0.108027	-0.004748	0.001261	-0.002305
00647	13800217	-0.295801	9.815463	0.097342	-0.004350	0.001687	-0.002140
00648	13800267	-0.312306	9.828947	0.117029	-0.001927	0.003085	-0.002977
00649	13800317	-0.287690	9.829907	0.105233	-0.003156	0.003610	-0.001656
00650	13800367	-0.287067	9.807560	0.124308	-0.001442	0.005063	-0.000916
00651	13800417	-0.282844	9.833167	0.097836	-0.004801	0.002133	0.001066
00652	13800467	-0.308382	9.835674	0.099550	-0.004774	0.000232	-0.000383
00653	13800517	-0.292539	9.815888	0.103085	-0.003872	-0.000243	-0.002409
00654	13800567	-0.287108	9.799712	0.110334	-0.005832	-0.000920	-0.001194
00655	13800617	-0.301826	9.804579	0.105653	-0.000235	-0.000690	0.000657
00656	13800667	-0.300486	9.810977	0.107704	-0.004085	0.000796	0.002178
00657	13800717	-0.310723	9.823779	0.115387	-0.003948	0.001472	-0.000062
00658	13800767	-0.299552	9.811437	0.124478	-0.003735	-0.000726	-0.003408
00659	13800817	-0.297320	9.822445	0.104720	-0.002857	0.001234	0.000030
00660	13800867	-0.293780	9.841586	0.112667	-0.002953	0.001199	-0.000546
00661	13800917	-0.300987	9.828672	0.097592	-0.002514	-0.000868	-0.003824
00662	13800967	-0.303419	9.834063	0.100004	-0.002154	0.001180	-0.001220
00663	13801017	-0.311148	9.833920	0.102931	-0.004949	0.001446	-0.003359
00664	13801067	-0.298873	9.813110	0.108629	-0.004376	0.002557	-0.002519
00665	13801117	-0.298031	9.810209	0.097073	-0.001708	0.000383	0.000629
00666	13801167	-0.286729	9.814246	0.106753	-0.009698	0.000080	0.000969
00667	13801217	-0.286673	9.800970	0.106117	-0.001858	0.000692	-0.004046
00668	13801267	-0.297871	9.827526	0.113184	-0.004598	0.000720	0.000995
00669	13801317	-0.301355	9.801220	0.108703	-0.005960	0.001146	-0.000571
00670	13801367	-0.304302	9.829699	0.105556	-0.005298	0.001642	0.000009
00671	13801417	-0.292722	9.798199	0.096153	-0.004131	0.002919	-0.001528
00672	13801467	-0.283736	9.806664	0.093101	-0.000062	0.002765	-0.001734
00673	13801517	-0.305358	9.814865	0.097435	-0.005145	-0.001784	-0.003374
00674	13801567	-0.280785	9.792028	0.106101	-0.002168	-0.001502	-0.000917
00675	13801617	-0.290018	9.817476	0.109661	-0.008500	0.002351	-0.003922
00676	13801667	-0.301437	9.827171	0.133574	-0.003154	-0.001746	-0.002131
00677	13801717	-0.311703	9.811256	0.111134	-0.004824	-0.001123	0.002172
00678	13801767	-0.269000	9.818460	0.109255	-0.005149	0.001737	-0.001501
00679	13801817	-0.292981	9.811625	0.117704	-0.003467	0.000122	-0.001581
00680	13801867	-0.277508	9.818985	0.099221	-0.005300	0.000315	-0.001764
00681	13801917	-0.306443	9.803164	0.117098	-0.005850	0.001796	0.000296
00682	13801967	-0.292256	9.816203	0.113616	-0.002895	0.005624	-0.000618
00683	13802017	-0.294901	9.817752	0.103120	-0.003795	0.001409	-0.001182
00684	13802067	-0.297029	9.814746	0.112039	-0.005369	-0.001460	-0.000042
00685	13802117	-0.279026	9.806562	0.103303	-0.006330	-0.000413	-0.000513
00686	13802167	-0.287559	9.823797	0.101886	-0.004170	-0.002827	0.000300
00687	13802217	-0.293379	9.834642	0.116963	-0.003210	-0.000074	-0.004367
00688	13802267	-0.296960	9.803653	0.123735	-0.005239	0.001610	-0.001179
00689	13802317	-0.303710	9.832568	0.105091	-0.004104	0.003015	-0.002614
00690	13802367	-0.292445	9.825066	0.123275	-0.006559	-0.000025	0.000738
00691	13802417	-0.313817	9.824867	0.103740	-0.006089	0.003371	-0.001325
00692	13802467	-0.291517	9.834644	0.102865	-0.007240	-0.000850	-0.000835
00693	13802517	-0.294141	9.825968	0.109558	-0.004161	0.001819	-0.002685
00694	13802567	-0.307630	9.817867	0.116381	-0.004296	-0.000023	-0.003462
00695	13802617	-0.305559	9.832941	0.109572	-0.001736	0.000317	0.001402
00696	13802667	-0.314112	9.825549	0.105408	-0.005135	-0.000010	-0.004359
00697	13802717	-0.318637	9.826385	0.108975	-0.005648	0.002377	-0.000756
00698	13802767	-0.296720	9.816758	0.104628	-0.007386	0.002027	0.001294
00699	13802817	-0.302108	9.816850	0.109861	-0.004409	0.001358	-0.004385
00700	13802867	-0.298164	9.812046	0.101710	-0.005783	0.002466	-0.002709
00701	13802917	-0.292894	9.812466	0.093589	-0.005180	0.001576	-0.002781
00702	13802967	-0.302660	9.837901	0.113674	-0.004046	-0.001091	-0.004977
00703	13803017	-0.305902	9.833960	0.104855	-0.004176	0.001268	-0.003010
00704	13803067	-0.297766	9.828322	0.123747	-0.005092	0.002129	-0.001398
00705	13803117	-0.314123	9.827244	0.118330	-0.004335	-0.000504	0.000186
00706	13803167	-0.309660	9.830502	0.111032	-0.003368	0.000928	-0.003205
00707	13803217	-0.286507	9.816159	0.121041	-0.005496	-0.001761	-0.004692
00708	13803267	-0.281599	9.815688	0.125329	-0.004169	-0.001825	0.000177
00709	13803317	-0.319523	9.827652	0.103029	-0.005754	-0.000433	-0.001056
00710	13803367	-0.289494	9.817886	0.114576	-0.004066	0.003050	-0.000371
00711	13803417	-0.301196	9.829252	0.121658	-0.006266	0.001487	-0.005087
00712	13803467	-0.299619	9.829125	0.115531	-0.003187	0.001552	0.000289
00713	13803517	-0.298118	9.813450	0.133810	-0.004991	0.000002	0.000576
00714	13803567	-0.290259	9.800773	0.085128	-0.004485	0.000977	-0.000224
00715	13803617	-0.287718	9.813044	0.107039	-0.008637	-0.001098	0.000546
00716	13803667	-0.293965	9.817222	0.108145	-0.002384	0.003366	-0.002139
00717	13803717	-0.296533	9.809797	0.110248	-0.001365	-0.001880	-0.003482
00718	13803767	-0.297788	9.819301	0.108186	-0.006284	0.001235	-0.002687
00719	13803817	-0.292278	9.815722	0.114232	-0.007278	-0.000526	0.001223
00720	13803867	-0.288086	9.802238	0.115043	-0.004081	0.001568	0.000450
00721	13803917	-0.297255	9.832561	0.110240	-0.002282	-0.002052	-0.000755
00722	13803967	-0.305416	9.828729	0.121316	-0.002529	0.000812	-0.002284
00723	13804017	-0.305737	9.805820	0.114462	-0.003923	-0.000498	0.000378
00724	13804067	-0.300742	9.823573	0.105729	-0.002053	-0.001245	-0.002807
00725	13804117	-0.310489	9.835329	0.120247	-0.004853	0.000355	-0.002658
00726	13804167	-0.297395	9.814981	0.096272	-0.004840	0.004391	-0.000011
00727	13804217	-0.286679	9.812676	0.115985	-0.003881	0.001314	0.001667
00728	13804267	-0.311097	9.837854	0.109406	-0.004848	-0.000512	-0.000036
00729	13804317	-0.278181	9.811065	0.104004	-0.005361	-0.001980	-0.002963
00730	13804367	-0.285275	9.810081	0.116416	-0.002715	0.000718	0.000220
00731	13804417	-0.290682	9.810190	0.089160	-0.002977	0.001775	-0.003171
00732	13804467	-0.301437	9.823487	0.110882	-0.006928	0.002550	-0.000113
00733	13804517	-0.291028	9.815938	0.100904	-0.003497	0.001090	-0.001570
00734	13804567	-0.316196	9.836876	0.123088	-0.005070	-0.001518	0.000408
00735	13804617	-0.297805	9.823044	0.111626	0.000232	-0.001321	0.001162
00736	13804667	-0.305442	9.826812	0.107450	-0.002687	0.002012	0.000227
00737	13804717	-0.310075	9.828561	0.113117	-0.009079	0.000573	-0.001012
00738	13804767	-0.284905	9.814144	0.114572	-0.004927	0.001971	-0.000411
00739	13804817	-0.295083	9.822361	0.112209	-0.003920	0.001241	-0.003240
00740	13804867	-0.293866	9.814700	0.102128	-0.005005	0.002289	-0.001814
00741	13804917	-0.288562	9.821131	0.120095	-0.004539	0.000589	-0.000452
00742	13804967	-0.299451	9.827806	0.093761	-0.003298	0.002031	-0.000671
00743	13805017	-0.308708	9.845731	0.093087	-0.003456	0.001900	0.000709
00744	13805067	-0.291896	9.816454	0.112872	-0.002182	0.001951	-0.001666
00745	13805117	-0.297826	9.830022	0.089690	-0.004009	0.003178	-0.001846
00746	13805167	-0.295291	9.824200	0.115874	-0.006757	-0.000098	-0.002371
00747	13805217	-0.307892	9.828126	0.112480	-0.004262	0.005341	-0.000293
00748	13805267	-0.301183	9.828595	0.103119	-0.005177	0.001869	-0.000311
00749	13805317	-0.299743	9.822241	0.100815	-0.006986	0.000926	-0.003325
00750	13805367	-0.305248	9.803319	0.107919	-0.003970	0.001823	-0.001951
00751	13805417	-0.316168	9.831084	0.098645	-0.004996	0.002163	-0.000374
00752	13805467	-0.306817	9.816709	0.115861	-0.003210	0.000127	0.000254
00753	13805517	-0.308006	9.827515	0.090297	-0.004867	0.002197	0.000714
00754	13805567	-0.297474	9.837517	0.127313	-0.004455	0.000940	-0.002690
00755	13805617	-0.290618	9.814314	0.114589	-0.003226	0.001679	-0.001089
00756	13805667	-0.291839	9.806720	0.129462	-0.005483	0.002217	-0.002362
00757	13805717	-0.295071	9.827557	0.082752	-0.005407	-0.001169	0.000375
00758	13805767	-0.310393	9.831680	0.111113	-0.004253	0.001655	-0.002301
00759	13805817	-0.301412	9.823406	0.115846	-0.004096	-0.000045	0.000382
00760	13805867	-0.292286	9.809670	0.106460	-0.003578	0.000536	-0.002501
00761	13805917	-0.292057	9.821541	0.106275	-0.006995	0.003745	-0.000392
00762	13805967	-0.308554	9.801928	0.118531	-0.005521	-0.001720	-0.000557
00763	13806017	-0.286620	9.820568	0.112109	-0.000588	-0.001924	0.000004
00764	13806067	-0.313906	9.821859	0.098135	-0.003278	0.002652	0.000523
00765	13806117	-0.305643	9.823779	0.134646	-0.008047	0.004691	0.000257
00766	13806167	-0.305791	9.831222	0.113506	-0.004751	0.001591	0.000647
00767	13806217	-0.288902	9.824149	0.108506	-0.002117	-0.000376	-0.003441
00768	13806267	-0.281449	9.799483	0.114323	-0.004483	-0.000221	-0.003374
00769	13806317	-0.284540	9.808711	0.113374	-0.004690	0.002626	0.000237
00770	13806367	-0.308815	9.816837	0.120421	-0.004420	0.001942	-0.001178
00771	13806417	-0.298835	9.829539	0.104751	-0.002478	0.002471	0.000519
00772	13806467	-0.311954	9.827971	0.103600	-0.002710	0.001357	-0.002787
00773	13806517	-0.314316	9.817639	0.125969	-0.003602	0.001409	-0.001279
00774	13806567	-0.306412	9.827644	0.113947	-0.005478	0.002419	0.002927
00775	13806617	-0.303025	9.826859	0.090422	-0.002634	0.001041	-0.002085
00776	13806667	-0.289046	9.840300	0.107358	-0.002596	0.002976	-0.001982
00777	13806717	-0.304130	9.822162	0.117727	-0.003342	0.000155	-0.002474
00778	13806767	-0.307320	9.833025	0.102878	-0.001688	0.004474	-0.003862
00779	13806817	-0.303159	9.832138	0.133496	-0.000548	-0.000220	-0.002834
00780	13806867	-0.292776	9.822544	0.102135	-0.003698	0.001572	-0.000029
00781	13806917	-0.298151	9.818460	0.100717	-0.002971	0.003975	0.000077
00782	13806967	-0.280834	9.816384	0.111234	-0.005413	-0.002106	-0.000817
00783	13807017	-0.303492	9.817224	0.099505	-0.003421	0.000703	-0.001636
00784	13807067	-0.305603	9.819516	0.103106	-0.001198	0.001426	-0.000006
00785	13807117	-0.305223	9.822980	0.109847	-0.004098	0.000051	0.000030
00786	13807167	-0.288684	9.816757	0.111540	-0.006963	-0.000324	0.000675
00787	13807217	-0.298180	9.818155	0.105519	-0.004052	0.000536	0.000960
00788	13807267	-0.282827	9.824938	0.108862	-0.006174	0.005115	-0.000550
00789	13807317	-0.293113	9.819952	0.100590	-0.008985	0.003295	0.003713
00790	13807367	-0.302244	9.827892	0.086161	-0.005820	0.002924	0.001266
00791	13807417	-0.301609	9.836104	0.123525	-0.004730	0.000846	0.000577
00792	13807467	-0.281535	9.822844	0.122713	-0.004154	0.001560	-0.002529
00793	13807517	-0.275316	9.809354	0.109500	-0.002715	0.002784	-0.001472
00794	13807567	-0.280475	9.809999	0.110063	-0.008143	0.001432	0.000046
00795	13807617	-0.301845	9.817373	0.106724	-0.003706	0.000729	-0.000996
00796	13807667	-0.316301	9.827595	0.109446	-0.003956	0.001174	-0.003265
00797	13807717	-0.294900	9.807118	0.115995	-0.002190	0.002112	-0.002112
00798	13807767	-0.310739	9.833094	0.096073	-0.005894	0.001211	-0.000700
00799	13807817	-0.294067	9.816185	0.113125	-0.003400	0.001826	-0.003714
00800	13807867	-0.309545	9.820292	0.111804	-0.004778	0.002034	-0.003000
00801	13807917	-0.293450	9.808384	0.112377	-0.009163	0.002018	-0.005141
00802	13807967	-0.301386	9.808941	0.100047	-0.005136	-0.000515	0.000220
00803	13808017	-0.292388	9.805207	0.103635	-0.006745	0.000676	-0.001055
00804	13808067	-0.297684	9.831992	0.100886	-0.002091	0.003245	-0.001531
00805	13808117	-0.322210	9.821931	0.117896	-0.004022	-0.000664	-0.002185
00806	13808167	-0.312606	9.821219	0.110081	-0.000462	0.002273	-0.002145
00807	13808217	-0.317534	9.819954	0.096467	-0.002100	0.001407	-0.002086
00808	13808267	-0.292269	9.826847	0.115765	-0.003804	0.004894	-0.002190
00809	13808317	-0.291642	9.804459	0.106461	-0.004213	0.000434	-0.001637
00810	13808367	-0.292569	9.814063	0.082805	-0.006793	0.003228	-0.000977
00811	13808417	-0.319828	9.830613	0.110927	-0.004809	0.000200	0.000161
00812	13808467	-0.306190	9.801472	0.119432	-0.004309	0.000303	-0.002181
00813	13808517	-0.291606	9.824244	0.100706	-0.006304	0.000717	-0.001340
00814	13808567	-0.296364	9.822650	0.107416	-0.004275	0.000630	0.000606
00815	13808617	-0.301972	9.808072	0.110048	-0.002135	-0.001694	-0.001013
00816	13808667	-0.303718	9.816181	0.105919	-0.009000	-0.000943	-0.000925
00817	13808717	-0.300576	9.813018	0.113688	-0.005123	0.001001	-0.000410
00818	13808767	-0.307655	9.825273	0.113049	-0.005674	0.002279	-0.001622
00819	13808817	-0.305766	9.816730	0.129962	-0.004773	0.000937	-0.002433
00820	13808867	-0.299910	9.806856	0.098065	-0.003027	0.002653	0.001032
00821	13808917	-0.295686	9.818254	0.116491	-0.003586	0.004157	-0.001363
00822	13808967	-0.291077	9.826108	0.118895	-0.002538	0.002008	-0.002305
00823	13809017	-0.302648	9.812246	0.100078	-0.006025	0.000978	-0.002618
00824	13809067	-0.298571	9.815261	0.123795	-0.006691	0.001904	-0.002775
00825	13809117	-0.282279	9.819837	0.101306	-0.002614	0.000527	-0.000806
00826	13809167	-0.296073	9.815619	0.102138	-0.003968	0.002822	-0.002202
00827	13809217	-0.296569	9.818686	0.103128	-0.005197	0.001317	-0.001343
00828	13809267	-0.281757	9.806938	0.107632	-0.005604	0.001757	-0.003934
00829	13809317	-0.302197	9.820277	0.087270	-0.002615	-0.000572	-0.001069
00830	13809367	-0.301772	9.837407	0.130939	-0.004221	0.003721	-0.004310
00831	13809417	-0.287371	9.824047	0.116919	-0.003052	-0.000480	0.000855
00832	13809467	-0.298363	9.833562	0.121555	-0.003875	-0.000277	-0.003629
00833	13809517	-0.303495	9.833945	0.123240	-0.001800	0.003318	-0.000664
00834	13809567	-0.305797	9.833427	0.108397	-0.003907	-0.000075	0.000156
00835	13809617	-0.307103	9.835060	0.109353	-0.002094	0.002208	-0.003299
00836	13809667	-0.296475	9.811101	0.102568	-0.001192	-0.000100	-0.001809
00837	13809717	-0.289184	9.795197	0.109366	-0.006025	0.000046	-0.001700
00838	13809767	-0.290501	9.801362	0.108160	-0.004285	0.001488	-0.004165
00839	13809817	-0.308353	9.809114	0.098878	-0.005623	0.000440	-0.001409
00840	13809867	-0.314129	9.833122	0.106776	-0.003797	0.001600	-0.001958
00841	13809917	-0.290599	9.823379	0.126471	0.000361	0.000676	0.000096
00842	13809967	-0.283642	9.826676	0.118131	-0.001974	0.001737	-0.000019
00843	13810017	-0.286623	9.814989	0.089128	-0.002679	0.001884	0.000979
00844	13810067	-0.305431	9.814674	0.110047	-0.002653	0.000714	-0.003482
00845	13810117	-0.292010	9.807264	0.109078	-0.004326	0.003040	-0.003242
00846	13810167	-0.296116	9.817891	0.093047	-0.003333	0.003929	-0.003817
00847	13810217	-0.300962	9.827373	0.105069	-0.004919	0.003976	0.000229
00848	13810267	-0.291831	9.816996	0.108327	-0.002819	0.001071	0.000303
00849	13810317	-0.281407	9.820446	0.109032	-0.003388	-0.000431	-0.002174
00850	13810367	-0.263318	9.803934	0.102005	-0.004539	-0.002613	-0.003659
00851	13810417	-0.281954	9.814868	0.132116	-0.007404	0.000341	-0.002641
00852	13810467	-0.292310	9.826155	0.098815	-0.005074	0.002680	0.000606
00853	13810517	-0.287899	9.815215	0.104298	-0.005036	0.003554	0.001059
00854	13810567	-0.281572	9.824964	0.107569	-0.003548	-0.002041	0.001761
00855	13810617	-0.309106	9.828767	0.115906	-0.003537	0.000709	0.001682
00856	13810667	-0.276012	9.835058	0.103682	-0.003289	0.000837	0.000108
00857	13810717	-0.299352	9.828947	0.127570	-0.004080	-0.001267	0.003368
00858	13810767	-0.305859	9.813872	0.115593	-0.004549	0.000199	-0.000308
00859	13810817	-0.290514	9.804840	0.113425	-0.004184	0.003921	-0.000868
00860	13810867	-0.300746	9.823394	0.117509	-0.004575	-0.000219	-0.001238
00861	13810917	-0.314873	9.837313	0.126651	-0.004202	0.004269	-0.003298
00862	13810967	-0.311939	9.828309	0.097202	-0.003125	-0.001686	-0.003941
00863	13811017	-0.302222	9.829823	0.114897	-0.004543	-0.001089	-0.000249
00864	13811067	-0.294571	9.806849	0.117983	-0.002533	-0.000928	0.000159
00865	13811117	-0.305637	9.812602	0.120819	-0.002117	0.002214	0.000080
00866	13811167	-0.300949	9.824648	0.112770	-0.006282	0.002532	0.001919
00867	13811217	-0.310088	9.816931	0.098101	-0.002632	0.001203	-0.001232
00868	13811267	-0.303649	9.811889	0.107252	-0.005827	0.004148	-0.001659
00869	13811317	-0.286162	9.813626	0.116144	-0.001418	0.002187	-0.002810
00870	13811367	-0.307744	9.823039	0.119440	-0.001889	0.003991	-0.003527
00871	13811417	-0.311264	9.826726	0.108217	-0.003239	-0.000072	-0.003517
00872	13811467	-0.291824	9.830743	0.109027	-0.004388	-0.002125	-0.003201
00873	13811517	-0.297924	9.817642	0.107925	-0.004745	0.001530	0.002840
00874	13811567	-0.299349	9.801337	0.118456	-0.004689	0.000292	-0.002744
00875	13811617	-0.296000	9.819883	0.118134	0.000343	0.002160	-0.001851
00876	13811667	-0.284400	9.817330	0.108529	-0.002045	0.001024	0.000330
00877	13811717	-0.316336	9.819412	0.101022	-0.001656	-0.000235	-0.000704
00878	13811767	-0.297018	9.813478	0.117266	-0.004253	0.000919	-0.000688
00879	13811817	-0.291612	9.806733	0.097562	-0.003356	-0.000326	-0.000374
00880	13811867	-0.292210	9.810527	0.112229	-0.005265	0.001708	0.000856
00881	13811917	-0.309748	9.826641	0.099414	-0.006508	0.002328	-0.002181
00882	13811967	-0.292812	9.805400	0.105717	-0.004485	0.003370	-0.000323
00883	13812017	-0.288679	9.811254	0.099224	-0.002662	-0.001189	-0.003459
00884	13812067	-0.294200	9.819746	0.113114	-0.002486	-0.000145	0.001450
00885	13812117	-0.292579	9.830061	0.091282	-0.002320	0.002568	-0.000557
00886	13812167	-0.299986	9.818719	0.113405	-0.001938	-0.003919	-0.002868
00887	13812217	-0.288968	9.813842	0.115772	-0.003690	0.001244	-0.001717
00888	13812267	-0.287304	9.809000	0.107897	-0.005339	0.001403	-0.004784
00889	13812317	-0.288446	9.817827	0.103544	-0.002684	0.000815	-0.001748
00890	13812367	-0.287547	9.817699	0.112785	-0.000563	0.002532	-0.001685
00891	13812417	-0.301688	9.819475	0.108795	-0.001432	0.001640	-0.003163
00892	13812467	-0.289529	9.812666	0.098422	0.000519	0.001874	0.000841
00893	13812517	-0.292418	9.808907	0.109409	-0.005750	-0.004631	-0.000779
00894	13812567	-0.278907	9.820223	0.093947	-0.004766	0.001135	-0.000079
00895	13812617	-0.288396	9.813250	0.108326	-0.003466	-0.000517	0.001479
00896	13812667	-0.316937	9.824957	0.111211	-0.007456	0.002088	-0.002018
00897	13812717	-0.288257	9.820798	0.111250	-0.005776	0.001666	0.000536
00898	13812767	-0.306450	9.838864	0.109578	-0.004455	0.002135	-0.002926
00899	13812817	-0.306872	9.822277	0.107749	-0.005348	0.001188	-0.000332
00900	13812867	-0.286436	9.804368	0.117030	-0.005323	0.003481	-0.001121
00901	13812917	-0.307030	9.843513	0.130987	-0.004862	0.001936	-0.001704
00902	13812967	-0.297573	9.810817	0.120635	-0.006323	0.001357	-0.004075
00903	13813017	-0.308921	9.828804	0.129628	-0.006892	-0.000481	0.000502
00904	13813067	-0.279142	9.805943	0.112622	-0.005499	0.001596	-0.003216
00905	13813117	-0.282297	9.814753	0.108116	-0.004482	-0.000190	-0.002136
00906	13813167	-0.296126	9.824048	0.125157	-0.003149	0.000190	-0.003003
00907	13813217	-0.315245	9.827247	0.101802	-0.005597	0.005189	0.000139
00908	13813267	-0.292446	9.828322	0.096325	-0.002103	0.003532	-0.004043
00909	13813317	-0.282259	9.812752	0.114767	-0.003625	0.002480	0.000726
00910	13813367	-0.279715	9.818682	0.116858	-0.000558	0.001688	0.000037
00911	13813417	-0.283459	9.814829	0.117430	-0.001905	0.001703	0.000621
00912	13813467	-0.315167	9.832921	0.102897	-0.002957	0.002980	0.004320
00913	13813517	-0.293086	9.800085	0.112086	-0.007659	0.003441	-0.002076
00914	13813567	-0.276748	9.795400	0.106185	-0.007015	0.003288	-0.000445
00915	13813617	-0.277759	9.821342	0.130618	-0.005350	0.000957	-0.002996
00916	13813667	-0.310615	9.831897	0.111541	-0.004517	0.001103	-0.002482
00917	13813717	-0.302488	9.829494	0.105042	-0.003308	0.000118	-0.003967
00918	13813767	-0.294598	9.812258	0.106101	-0.008505	0.002909	-0.001372
00919	13813817	-0.299313	9.831491	0.100913	-0.000770	0.003207	-0.000142
00920	13813867	-0.281277	9.810246	0.108754	-0.002056	0.002180	-0.001363
00921	13813917	-0.293749	9.815777	0.109105	-0.004891	0.002774	-0.001733
00922	13813967	-0.306897	9.828382	0.096210	-0.005165	0.003549	-0.000060
00923	13814017	-0.298028	9.824195	0.098346	-0.004257	-0.001411	-0.002880
00924	13814067	-0.287677	9.813527	0.106401	-0.002446	0.000304	-0.000536
00925	13814117	-0.299944	9.815505	0.090927	-0.004553	0.000432	0.001040
00926	13814167	-0.305287	9.818213	0.126932	-0.004705	0.001137	-0.001136
00927	13814217	-0.294034	9.816242	0.125135	-0.003294	-0.001395	-0.002465
00928	13814267	-0.327111	9.835356	0.119962	-0.001679	0.003710	0.000987
00929	13814317	-0.297071	9.829329	0.089236	-0.004702	0.003040	-0.000706
00930	13814367	-0.303189	9.833772	0.103669	-0.003149	-0.001612	-0.000288
00931	13814417	-0.287112	9.811114	0.124827	-0.002181	-0.000213	-0.003423
00932	13814467	-0.296760	9.806101	0.134285	-0.004072	-0.001727	0.000291
00933	13814517	-0.308439	9.814997	0.101919	-0.003360	0.002897	-0.002345
00934	13814567	-0.289167	9.822401	0.098677	-0.000250	-0.001469	-0.001673
00935	13814617	-0.286502	9.817390	0.103072	-0.003292	-0.000261	-0.000477
00936	13814667	-0.281047	9.814568	0.105664	-0.003437	0.004580	-0.000963
00937	13814717	-0.293092	9.803609	0.114456	-0.006887	0.001127	-0.001930
00938	13814767	-0.283603	9.802586	0.111481	-0.005517	0.000247	-0.001711
00939	13814817	-0.308626	9.823868	0.126726	-0.005404	0.001097	0.001752
00940	13814867	-0.289290	9.819126	0.095690	-0.005267	0.002871	0.001245
00941	13814917	-0.318852	9.824584	0.118025	-0.001307	-0.000257	-0.001378
00942	13814967	-0.293565	9.825932	0.112810	-0.008108	0.000625	0.001658
00943	13815017	-0.282532	9.816223	0.104818	-0.007259	0.001829	-0.000676
00944	13815067	-0.299294	9.822729	0.115813	-0.004178	0.003794	-0.000576
00945	13815117	-0.276845	9.799594	0.095421	-0.004268	0.002202	-0.003310
00946	13815167	-0.287585	9.802828	0.107850	-0.003257	0.001640	-0.001972
00947	13815217	-0.287864	9.805387	0.110986	-0.004160	0.000914	-0.002133
00948	13815267	-0.306935	9.822043	0.108014	-0.007506	0.002337	-0.004227
00949	13815317	-0.273450	9.825395	0.085958	-0.003576	0.000638	0.000204
00950	13815367	-0.291464	9.813012	0.105205	-0.003052	-0.000773	-0.000699
00951	13815417	-0.300492	9.826240	0.102384	-0.001942	0.001638	-0.001845
00952	13815467	-0.275635	9.829957	0.111822	-0.001664	0.001661	-0.004828
00953	13815517	-0.306825	9.818317	0.118536	-0.004592	-0.000344	0.001035
00954	13815567	-0.291461	9.810626	0.106442	-0.003327	-0.000034	0.000329
00955	13815617	-0.284516	9.807190	0.104748	-0.006717	0.000938	-0.000652
00956	13815667	-0.317921	9.823278	0.110837	-0.001425	-0.000718	-0.002047
00957	13815717	-0.295558	9.830453	0.110109	-0.005917	0.001820	-0.002728
00958	13815767	-0.290754	9.820112	0.092084	-0.006180	0.000272	0.001750
00959	13815817	-0.282939	9.811640	0.109342	-0.005369	0.002801	-0.000262
00960	13815867	-0.294813	9.823376	0.108170	-0.005025	0.003997	-0.003394
00961	13815917	-0.312559	9.840543	0.103644	-0.003666	0.002640	-0.000648
00962	13815967	-0.297525	9.832382	0.106033	-0.006218	0.003200	-0.004102
00963	13816017	-0.312156	9.832211	0.121242	-0.005531	-0.000178	-0.002838
00964	13816067	-0.295999	9.822063	0.115559	-0.003324	0.001706	-0.001553
00965	13816117	-0.298392	9.825047	0.119657	-0.004228	0.001175	-0.000562
00966	13816167	-0.291868	9.837356	0.111512	-0.004630	0.001616	-0.002062
00967	13816217	-0.302189	9.811124	0.096439	-0.005669	0.001051	-0.002993
00968	13816267	-0.294066	9.797622	0.117714	-0.003275	0.001123	-0.003864
00969	13816317	-0.300638	9.803057	0.097882	-0.005791	0.003021	-0.000481
00970	13816367	-0.297219	9.822485	0.102147	-0.004356	0.000373	0.002836
00971	13816417	-0.281044	9.823528	0.124865	-0.004838	0.002065	-0.002667
00972	13816467	-0.286890	9.823855	0.113261	-0.001726	0.000995	0.000042
00973	13816517	-0.288370	9.828662	0.092896	-0.001283	0.002803	-0.004148
00974	13816567	-0.287080	9.815172	0.107669	-0.004978	0.000353	-0.002132
00975	13816617	-0.289287	9.811787	0.094424	-0.003553	0.000057	-0.001113
00976	13816667	-0.302832	9.821390	0.107266	-0.005829	0.000273	-0.000878
00977	13816717	-0.300838	9.815228	0.108213	-0.004357	-0.000121	-0.003062
00978	13816767	-0.296837	9.815024	0.109158	-0.005583	0.000472	-0.000269
00979	13816817	-0.288051	9.816050	0.111438	-0.003304	0.005256	-0.003072
00980	13816867	-0.288960	9.809027	0.120136	-0.005524	-0.000627	-0.001555
00981	13816917	-0.303846	9.814349	0.101254	-0.003776	-0.000946	0.000644
00982	13816967	-0.292329	9.831100	0.132369	-0.005686	0.002766	-0.001188
00983	13817017	-0.283511	9.814587	0.117550	0.000372	0.002386	-0.000279
00984	13817067	-0.289503	9.822020	0.108090	-0.003088	0.000356	-0.001884
00985	13817117	-0.297624	9.837646	0.118580	-0.008092	0.000911	-0.001865
00986	13817167	-0.267311	9.810131	0.096696	-0.003720	0.005446	0.000227
00987	13817217	-0.304761	9.822958	0.111596	-0.005407	0.005091	-0.001881
00988	13817267	-0.281622	9.801484	0.107687	-0.007003	0.004967	-0.000885
00989	13817317	-0.296152	9.827541	0.113383	-0.003278	-0.003417	0.003485
00990	13817367	-0.295707	9.811076	0.104824	-0.005002	0.000521	0.002164
00991	13817417	-0.305528	9.837114	0.115808	-0.002154	0.001139	-0.003804
00992	13817467	-0.276440	9.827329	0.112911	-0.006526	-0.000025	0.000337
00993	13817517	-0.323720	9.836689	0.098020	-0.004876	-0.000742	-0.001623
00994	13817567	-0.291360	9.846264	0.118676	-0.005352	0.001118	-0.003058
00995	13817617	-0.276871	9.820548	0.105571	-0.000095	0.001922	-0.002238
00996	13817667	-0.295786	9.826151	0.127556	-0.004023	-0.001173	0.000931
00997	13817717	-0.297304	9.813487	0.116722	-0.001025	0.003135	-0.000398
00998	13817767	-0.278765	9.808323	0.096972	-0.002630	0.001039	-0.001622
00999	13817817	-0.268706	9.799123	0.102291	-0.007184	0.003413	-0.002336
01000	13817867	-0.294978	9.806127	0.103429	-0.006693	-0.002096	-0.001210
01001	13817917	-0.306818	9.812112	0.105551	-0.003462	-0.001110	-0.002814
01002	13817967	-0.295702	9.827909	0.105507	-0.005710	-0.001495	0.000297
01003	13818017	-0.302493	9.835089	0.111197	-0.002316	0.003635	0.001339
01004	13818067	-0.291451	9.821698	0.112192	-0.003139	0.000031	-0.000827
01005	13818117	-0.289055	9.826032	0.109548	-0.003100	0.001838	-0.001843
01006	13818167	-0.281862	9.817126	0.123588	-0.002927	0.003619	-0.000134
01007	13818217	-0.304684	9.815435	0.107246	-0.003816	0.001179	-0.001812
01008	13818267	-0.298351	9.821413	0.109381	-0.006267	0.000811	-0.002864
01009	13818317	-0.291398	9.815204	0.117777	-0.006097	0.001464	-0.001518
01010	13818367	-0.294957	9.815068	0.123166	-0.001258	0.002418	-0.000463
01011	13818417	-0.306253	9.825467	0.116803	-0.003931	0.001957	-0.000492
01012	13818467	-0.310847	9.820584	0.091422	-0.002706	0.002493	-0.001482
01013	13818517	-0.299394	9.816341	0.114281	0.000014	0.000675	0.002022
01014	13818567	-0.293225	9.822820	0.098984	-0.004511	0.005404	0.001707
01015	13818617	-0.302462	9.820844	0.127314	-0.002026	-0.002826	-0.001357
01016	13818667	-0.292396	9.849648	0.098493	-0.002898	0.000453	-0.001527
01017	13818717	-0.277010	9.813744	0.116001	-0.003777	-0.000979	0.000834
01018	13818767	-0.310234	9.820589	0.122563	-0.002703	0.000401	0.000620
01019	13818817	-0.304435	9.825095	0.095982	-0.003192	0.000713	-0.000530
01020	13818867	-0.285336	9.812085	0.109336	-0.006410	0.001262	-0.001741
01021	13818917	-0.281603	9.801737	0.106565	-0.001357	0.001322	-0.000507
01022	13818967	-0.292528	9.821602	0.116706	-0.001926	0.002676	0.003163
01023	13819017	-0.303971	9.812513	0.128201	-0.009357	0.002833	0.002095
01024	13819067	-0.308168	9.816690	0.099742	-0.000795	0.000811	-0.000894
01025	13819117	-0.307290	9.829516	0.131124	-0.000734	-0.000923	0.001696
01026	13819167	-0.299858	9.830551	0.115032	-0.002133	0.002829	0.000247
01027	13819217	-0.279983	9.803515	0.085100	-0.005586	0.002737	0.000703
01028	13819267	-0.291909	9.832883	0.093551	-0.006241	0.003205	0.000130
01029	13819317	-0.285047	9.829609	0.111910	-0.004172	0.001534	-0.000238
01030	13819367	-0.302007	9.810654	0.096746	-0.005993	0.000877	-0.004979
01031	13819417	-0.306080	9.816721	0.099470	0.001086	0.000846	-0.001854
01032	13819467	-0.295815	9.821078	0.117881	-0.002825	0.004164	-0.003562
01033	13819517	-0.292783	9.805489	0.100194	-0.001434	0.001868	-0.000048
01034	13819567	-0.284910	9.801404	0.110070	-0.006650	-0.000090	0.000882
01035	13819617	-0.293640	9.828865	0.106628	-0.002158	0.000338	-0.000984
01036	13819667	-0.301828	9.827956	0.112519	-0.007235	-0.002741	0.003979
01037	13819717	-0.288215	9.827806	0.118099	-0.001740	-0.001690	-0.001734
01038	13819767	-0.295271	9.822656	0.108328	-0.002027	0.000046	-0.003298
01039	13819817	-0.291748	9.828150	0.108123	-0.006008	-0.000247	-0.000723
01040	13819867	-0.300575	9.812842	0.109816	-0.003040	-0.000351	-0.001463
01041	13819917	-0.283502	9.809806	0.089364	-0.003663	0.001317	-0.000519
01042	13819967	-0.296730	9.820706	0.094900	-0.002366	0.000826	0.001049
01043	13820017	-0.292070	9.811734	0.095388	-0.000585	0.004313	0.000519
01044	13820067	-0.308687	9.804810	0.116100	-0.001769	-0.000234	-0.003094
01045	13820117	-0.297000	9.829385	0.101005	-0.006384	-0.001063	-0.005651
01046	13820167	-0.301473	9.801864	0.112817	-0.006825	0.002874	-0.001877
01047	13820217	-0.297499	9.822483	0.086550	-0.002487	0.000267	-0.003632
01048	13820267	-0.287442	9.809912	0.110473	-0.003440	0.000449	0.000633
01049	13820317	-0.302312	9.823465	0.111603	-0.007328	0.001966	-0.000499
01050	13820367	-0.319807	9.824964	0.107688	-0.001383	-0.002263	-0.002460
01051	13820417	-0.303204	9.836259	0.096657	-0.004260	-0.000276	-0.002060
01052	13820467	-0.301712	9.828580	0.118485	-0.002073	0.001769	0.001823
01053	13820517	-0.287589	9.810803	0.129270	-0.007468	-0.001819	-0.000779
01054	13820567	-0.300729	9.832749	0.110538	-0.001838	0.002516	0.001471
01055	13820617	-0.302058	9.824871	0.097161	-0.003481	-0.000390	0.000690
01056	13820667	-0.282515	9.804406	0.117673	-0.004067	0.000432	-0.004397
01057	13820717	-0.292037	9.817708	0.093226	-0.003320	-0.001682	-0.002878
01058	13820767	-0.292288	9.809608	0.110558	-0.004234	-0.002412	-0.004767
01059	13820817	-0.301341	9.814555	0.105591	-0.003837	0.000504	-0.002697
01060	13820867	-0.322678	9.837627	0.115682	-0.003271	0.001401	0.004198
01061	13820917	-0.307583	9.835065	0.108912	-0.004449	-0.000218	-0.002188
01062	13820967	-0.292111	9.833490	0.084549	-0.001875	0.002349	-0.002117
01063	13821017	-0.292981	9.821807	0.103607	-0.005760	0.002931	0.000333
01064	13821067	-0.299834	9.817698	0.117994	-0.004356	0.001948	-0.002144
01065	13821117	-0.295750	9.813089	0.096872	-0.001623	0.002319	-0.002789
01066	13821167	-0.305692	9.812077	0.093241	-0.002377	0.002023	-0.000675
01067	13821217	-0.301062	9.806524	0.118488	-0.002792	0.000879	-0.001704
01068	13821267	-0.310442	9.810661	0.119976	-0.004623	0.001006	-0.003624
01069	13821317	-0.277169	9.816035	0.121264	-0.005563	0.001508	-0.002787
01070	13821367	-0.290087	9.813772	0.103588	-0.005750	-0.000627	-0.001643
01071	13821417	-0.303684	9.837413	0.098129	-0.004742	-0.001059	0.000147
01072	13821467	-0.309520	9.834601	0.121882	-0.002835	-0.000731	-0.000782
01073	13821517	-0.298734	9.836234	0.101356	-0.001574	0.000735	-0.003282
01074	13821567	-0.307211	9.825663	0.119188	-0.003915	0.000117	-0.000878
01075	13821617	-0.285931	9.793768	0.127962	-0.003296	0.003843	-0.000699
01076	13821667	-0.296098	9.811817	0.117908	-0.001171	-0.000772	-0.001561
01077	13821717	-0.291197	9.804567	0.115042	-0.001668	0.001164	0.001626
01078	13821767	-0.296807	9.813129	0.109328	-0.003794	-0.000786	-0.001583
01079	13821817	-0.290747	9.819922	0.120329	-0.003157	0.002390	-0.001376
01080	13821867	-0.289436	9.809357	0.113901	-0.005736	0.002889	-0.002909
01081	13821917	-0.287727	9.819386	0.126537	-0.004039	-0.000242	-0.002926
01082	13821967	-0.324297	9.818777	0.120999	-0.003397	0.000934	-0.002888
01083	13822017	-0.300663	9.822602	0.091398	-0.005136	0.003225	-0.003996
01084	13822067	-0.301096	9.841734	0.097137	-0.003911	-0.002979	0.000520
01085	13822117	-0.286298	9.815161	0.108860	-0.004256	-0.000440	-0.001744
01086	13822167	-0.297147	9.818818	0.093972	-0.001220	0.006241	0.001169
01087	13822217	-0.300503	9.790268	0.111716	-0.001786	0.003777	0.001286
01088	13822267	-0.286965	9.803722	0.112464	-0.005065	-0.000164	-0.003311
01089	13822317	-0.309521	9.828550	0.114482	-0.005681	0.000643	0.001794
01090	13822367	-0.309867	9.816824	0.105049	-0.001670	0.000869	0.000025
01091	13822417	-0.290751	9.808042	0.105793	-0.006047	0.001822	-0.001150
01092	13822467	-0.303344	9.823634	0.099808	-0.004772	0.002780	-0.003516
01093	13822517	-0.288649	9.809903	0.109517	-0.003352	0.001551	-0.001189
01094	13822567	-0.295517	9.823640	0.105808	-0.007461	-0.001243	-0.003244
01095	13822617	-0.310478	9.829823	0.107887	-0.001553	0.002619	0.001669
01096	13822667	-0.305773	9.848801	0.112077	-0.004975	0.000362	-0.000197
01097	13822717	-0.280106	9.825841	0.113758	-0.001366	0.000255	-0.002964
01098	13822767	-0.302128	9.821555	0.112812	-0.006572	0.004465	-0.000202
01099	13822817	-0.293688	9.818564	0.098107	-0.005309	0.002579	-0.002910
01100	13822867	-0.305532	9.812179	0.102130	-0.002737	0.000466	0.001017
01101	13822917	-0.267117	9.793971	0.098436	-0.005574	0.002062	0.000067
01102	13822967	-0.289020	9.818085	0.102097	-0.003318	0.000285	-0.003123
01103	13823017	-0.288748	9.816573	0.107748	-0.008521	0.002005	-0.002647
01104	13823067	-0.301358	9.820400	0.110791	-0.004046	0.001247	-0.000484
01105	13823117	-0.301653	9.839829	0.127859	-0.005632	0.002130	0.003178
01106	13823167	-0.304565	9.841331	0.104461	-0.001252	0.002611	-0.003914
01107	13823217	-0.323449	9.830860	0.106864	-0.003931	0.002669	-0.002779
01108	13823267	-0.285116	9.816519	0.114145	-0.006472	-0.000631	0.002749
01109	13823317	-0.304803	9.824536	0.117042	-0.005250	0.003968	-0.000561
01110	13823367	-0.310646	9.800749	0.116196	-0.004955	0.003947	0.001523
01111	13823417	-0.267437	9.802803	0.125830	-0.006761	0.004203	-0.000109
01112	13823467	-0.288703	9.809256	0.089639	-0.003451	0.001776	0.001378
01113	13823517	-0.311591	9.843705	0.114750	-0.005414	0.000262	0.002337
01114	13823567	-0.291400	9.827850	0.097306	-0.003230	0.002782	0.000229
01115	13823617	-0.299664	9.827814	0.124021	-0.006448	0.002496	0.000554
01116	13823667	-0.280029	9.821140	0.126226	-0.003218	0.003520	-0.000314
01117	13823717	-0.292079	9.822692	0.108395	-0.005800	0.002252	0.001132
01118	13823767	-0.291201	9.835212	0.096854	-0.003239	0.002068	-0.000610
01119	13823817	-0.297602	9.813863	0.091615	-0.003278	-0.003164	-0.001599
01120	13823867	-0.300787	9.834821	0.099294	-0.003263	-0.000357	-0.000560
01121	13823917	-0.296936	9.814353	0.106704	-0.003707	0.000677	0.001080
01122	13823967	-0.280760	9.816891	0.093461	-0.004070	0.005218	-0.000624
01123	13824017	-0.291908	9.809925	0.105439	-0.002339	0.000793	-0.000877
01124	13824067	-0.276177	9.813072	0.098704	-0.004283	0.001825	0.001636
01125	13824117	-0.297337	9.813414	0.121225	-0.007433	-0.000043	-0.000900
01126	13824167	-0.297833	9.824519	0.108178	-0.005150	0.002843	-0.002427
01127	13824217	-0.288463	9.812951	0.112457	-0.005163	0.003164	-0.001336
01128	13824267	-0.287990	9.828583	0.114535	-0.003201	0.000712	-0.001901
01129	13824317	-0.290719	9.824097	0.110686	-0.002175	0.000761	0.000019
01130	13824367	-0.300808	9.837441	0.098608	-0.005127	0.004067	-0.001875
01131	13824417	-0.294930	9.817205	0.107859	-0.001481	0.004195	-0.001725
01132	13824467	-0.294523	9.816183	0.097700	-0.007910	-0.000047	-0.000417
01133	13824517	-0.301706	9.815195	0.109637	-0.005160	-0.000328	-0.003468
01134	13824567	-0.282081	9.797790	0.115914	-0.002876	-0.000504	-0.000144
01135	13824617	-0.292269	9.820315	0.108064	-0.002120	0.002255	0.000958
01136	13824667	-0.294530	9.821321	0.118716	-0.004606	0.003821	-0.001460
01137	13824717	-0.285017	9.822290	0.109792	-0.003553	0.001671	-0.002535
01138	13824767	-0.273911	9.810791	0.110745	-0.006957	0.000933	-0.002593
01139	13824817	-0.301561	9.833416	0.113168	-0.003246	-0.000870	-0.001395
01140	13824867	-0.303865	9.825086	0.128283	-0.002098	0.001578	0.001117
01141	13824917	-0.302892	9.818008	0.111459	-0.009252	0.001597	-0.004247
01142	13824967	-0.307638	9.841962	0.107785	-0.006892	-0.002003	-0.002448
01143	13825017	-0.300888	9.825035	0.118238	-0.005779	0.001175	-0.004005
01144	13825067	-0.307092	9.819782	0.100321	-0.006133	0.001238	-0.003360
01145	13825117	-0.293316	9.820526	0.109581	-0.005641	-0.002140	-0.002388
01146	13825167	-0.311338	9.816809	0.105346	-0.003403	0.004097	-0.002231
01147	13825217	-0.293676	9.814399	0.106687	-0.003105	-0.001579	-0.002039
01148	13825267	-0.315312	9.826017	0.104843	-0.002995	0.002130	-0.003460
01149	13825317	-0.294246	9.839866	0.100386	-0.001178	-0.001677	-0.002076
01150	13825367	-0.290160	9.812093	0.120360	-0.004025	-0.000393	0.000531
01151	13825417	-0.298077	9.826396	0.109556	-0.002699	0.001369	0.001660
01152	13825467	-0.287692	9.818139	0.099717	-0.004470	0.001630	0.000160
01153	13825517	-0.288502	9.818055	0.104778	-0.005537	0.000637	-0.002376
01154	13825567	-0.299589	9.804983	0.096690	-0.004312	0.000864	0.003298
01155	13825617	-0.286419	9.807475	0.099936	-0.004433	0.000303	0.000021
01156	13825667	-0.306433	9.825518	0.097726	-0.005729	-0.001399	-0.002478
01157	13825717	-0.294067	9.815970	0.111738	-0.005215	-0.003786	-0.005315
01158	13825767	-0.308538	9.815112	0.093872	-0.004494	0.001436	0.000289
01159	13825817	-0.295530	9.827186	0.121934	-0.000482	0.000889	0.000147
01160	13825867	-0.298387	9.818565	0.093417	-0.007872	0.001792	-0.000757
01161	13825917	-0.296935	9.818996	0.097796	-0.002576	-0.002694	0.001993
01162	13825967	-0.299270	9.810255	0.093709	-0.000297	0.001924	-0.001872
01163	13826017	-0.297924	9.815215	0.112031	-0.005570	0.002162	0.001386
01164	13826067	-0.298537	9.832630	0.104306	-0.005026	-0.002558	-0.004057
01165	13826117	-0.284928	9.817365	0.136673	-0.005229	0.000960	-0.003366
01166	13826167	-0.280606	9.803217	0.103552	-0.005031	0.001300	0.001890
01167	13826217	-0.292999	9.821542	0.105286	-0.005512	0.005390	0.001272
01168	13826267	-0.281888	9.794753	0.128227	-0.005870	-0.001691	0.000435
01169	13826317	-0.293074	9.819161	0.121023	-0.001810	0.001417	-0.000361
01170	13826367	-0.301483	9.839107	0.113226	-0.005285	-0.001201	-0.002323
01171	13826417	-0.301404	9.823207	0.114026	-0.006919	0.000329	0.001892
01172	13826467	-0.296183	9.818520	0.113583	-0.001547	0.000964	-0.001933
01173	13826517	-0.304758	9.825357	0.109976	-0.006969	0.001617	0.000585
01174	13826567	-0.303267	9.815559	0.115786	-0.001899	0.001257	0.000276
01175	13826617	-0.299135	9.808990	0.114437	-0.007379	0.003612	0.000951
01176	13826667	-0.290981	9.825377	0.104521	-0.004895	0.002878	-0.001724
01177	13826717	-0.289296	9.809915	0.108399	-0.006343	-0.001954	0.000306
01178	13826767	-0.304865	9.809739	0.122635	-0.005218	0.003038	0.000361
01179	13826817	-0.291326	9.818419	0.109008	-0.001498	0.001712	0.000027
01180	13826867	-0.279942	9.814839	0.119936	-0.008435	0.000396	0.000449
01181	13826917	-0.306048	9.829618	0.109654	-0.004811	0.000072	-0.001577
01182	13826967	-0.298428	9.828011	0.111906	-0.001728	0.002766	-0.002021
01183	13827017	-0.297792	9.827452	0.118237	-0.004862	-0.000744	-0.004850
01184	13827067	-0.303048	9.826955	0.100068	-0.006014	0.001764	-0.000732
01185	13827117	-0.281257	9.828242	0.110888	-0.001194	0.002010	-0.001258
01186	13827167	-0.299474	9.813416	0.103387	-0.002902	-0.000774	-0.003156
01187	13827217	-0.307486	9.825540	0.126847	-0.003690	0.001189	-0.000933
01188	13827267	-0.307448	9.821719	0.112579	-0.004988	-0.001452	-0.001840
01189	13827317	-0.278209	9.804846	0.092006	-0.004290	-0.000309	-0.001616
01190	13827367	-0.291310	9.813909	0.124695	-0.004959	-0.000817	-0.006679
01191	13827417	-0.294650	9.817316	0.101076	-0.008492	0.002067	-0.003543
01192	13827467	-0.300605	9.816633	0.110094	-0.004446	0.003823	-0.000241
01193	13827517	-0.302539	9.830837	0.110065	-0.003765	0.001281	-0.002373
01194	13827567	-0.323890	9.831571	0.106915	-0.007389	0.000834	0.000137
01195	13827617	-0.298353	9.815068	0.105474	-0.002802	0.002630	0.001314
01196	13827667	-0.294319	9.834404	0.100508	-0.005513	0.001188	-0.000288
01197	13827717	-0.298675	9.835009	0.104093	-0.004698	-0.001312	0.000946
01198	13827767	-0.304781	9.830737	0.099374	-0.005680	-0.000814	-0.001353
01199	13827817	-0.293535	9.829394	0.088065	-0.005468	-0.001495	-0.002195
01200	13827867	-0.297694	9.808246	0.117737	-0.003794	-0.001812	-0.000755
01201	13827917	-0.300687	9.783575	0.115309	-0.001508	0.002038	0.000667
01202	13827967	-0.304225	9.801234	0.105643	-0.006140	0.001532	-0.001723
01203	13828017	-0.299428	9.823231	0.113459	-0.004846	0.000661	0.003140
01204	13828067	-0.300315	9.825030	0.119478	-0.004911	0.000266	-0.000388
01205	13828117	-0.287614	9.799873	0.114476	-0.000390	0.000797	-0.001621
01206	13828167	-0.291018	9.827016	0.105955	-0.003805	0.002570	-0.001536
01207	13828217	-0.300118	9.826181	0.105735	-0.002101	0.003210	-0.004709
01208	13828267	-0.306933	9.819931	0.106205	-0.000157	0.001305	-0.005973
01209	13828317	-0.275408	9.802609	0.100947	-0.007349	0.005613	-0.000423
01210	13828367	-0.312212	9.820279	0.094784	-0.003874	0.000931	0.000286
01211	13828417	-0.299244	9.804254	0.097847	-0.003538	0.001223	-0.000644
01212	13828467	-0.289424	9.819391	0.109284	-0.003198	0.002880	-0.000285
01213	13828517	-0.288775	9.815938	0.117894	-0.002585	-0.001570	-0.000823
01214	13828567	-0.296560	9.805676	0.115817	-0.005101	0.002063	-0.002979
01215	13828617	-0.297625	9.826970	0.118737	-0.005552	0.001680	0.001927
01216	13828667	-0.300262	9.835833	0.126459	-0.008018	-0.001634	0.000185
01217	13828717	-0.292029	9.826347	0.117294	-0.004991	0.002645	-0.002846
01218	13828767	-0.303824	9.828713	0.092853	-0.004401	-0.000028	-0.003824
01219	13828817	-0.300610	9.827813	0.092360	-0.003810	-0.001070	0.001845
01220	13828867	-0.291043	9.813045	0.104275	-0.004583	0.001946	-0.002018
01221	13828917	-0.308281	9.822707	0.109407	-0.003473	0.000552	0.001401
01222	13828967	-0.307548	9.843043	0.098621	-0.002971	0.003820	-0.000439
01223	13829017	-0.313455	9.817286	0.103407	-0.002854	0.002977	-0.000957
01224	13829067	-0.311829	9.821977	0.092862	-0.003211	0.002001	-0.002693
01225	13829117	-0.295405	9.805790	0.093988	-0.003450	0.000450	-0.001004
01226	13829167	-0.299167	9.818093	0.124257	-0.004789	0.000693	0.002657
01227	13829217	-0.302050	9.821671	0.120211	-0.006412	0.000004	-0.003658
01228	13829267	-0.300189	9.814108	0.120199	-0.005379	-0.001266	-0.001039
01229	13829317	-0.304065	9.823786	0.104863	-0.005316	0.002804	-0.002267
01230	13829367	-0.294606	9.833027	0.097284	-0.000727	0.000204	-0.002487
01231	13829417	-0.298034	9.824155	0.101091	-0.009033	0.003226	-0.000845
01232	13829467	-0.284635	9.810477	0.106449	-0.007153	0.002287	-0.002428
01233	13829517	-0.305069	9.840045	0.126186	-0.004004	0.000826	-0.002471
01234	13829567	-0.297206	9.812653	0.140252	-0.002693	-0.001378	-0.002678
01235	13829617	-0.289101	9.811472	0.099935	-0.003355	0.000415	-0.002928
01236	13829667	-0.293784	9.805530	0.112511	-0.005648	0.001479	0.001351
01237	13829717	-0.294111	9.804095	0.112239	-0.003393	0.001571	-0.003528
01238	13829767	-0.284777	9.818763	0.122999	-0.005582	0.000219	0.000153
01239	13829817	-0.291566	9.842803	0.096614	-0.004707	0.001912	-0.002017
01240	13829867	-0.308108	9.837255	0.120696	-0.005693	0.000860	-0.001116
01241	13829917	-0.299874	9.824142	0.115875	-0.007023	-0.000947	-0.002942
01242	13829967	-0.310907	9.829545	0.125379	-0.000184	0.001437	-0.001474
01243	13830017	-0.295629	9.821957	0.091375	-0.004785	0.000323	-0.000988
01244	13830067	-0.304984	9.829261	0.102212	-0.004686	0.001526	0.001680
01245	13830117	-0.313962	9.833818	0.107793	-0.006054	0.004079	-0.002882
01246	13830167	-0.304348	9.828234	0.108176	-0.004265	-0.004020	-0.000177
01247	13830217	-0.298404	9.811742	0.105980	-0.004219	-0.000408	-0.001184
01248	13830267	-0.298081	9.826013	0.103292	-0.001000	-0.000964	0.000151
01249	13830317	-0.305755	9.805567	0.100101	-0.006844	-0.002819	-0.004489
01250	13830367	-0.288238	9.820182	0.104793	-0.004876	0.002228	-0.001423
01251	13830417	-0.304001	9.828308	0.103678	-0.003824	0.001542	0.000525
01252	13830467	-0.308879	9.830914	0.100111	-0.006675	0.000357	-0.001466
01253	13830517	-0.307715	9.823318	0.101121	-0.007745	-0.000081	0.000015
01254	13830567	-0.306730	9.816031	0.097925	-0.006180	0.000979	-0.000399
01255	13830617	-0.296528	9.810252	0.111358	-0.005921	0.001726	-0.002383
01256	13830667	-0.299732	9.821779	0.114816	-0.002151	0.001315	0.001542
01257	13830717	-0.310187	9.824376	0.107457	-0.002701	0.001232	-0.000568
01258	13830767	-0.286804	9.810495	0.103232	-0.002579	0.005296	-0.005038
01259	13830817	-0.281756	9.840807	0.126760	-0.002776	0.001452	-0.003137
01260	13830867	-0.306818	9.846150	0.113239	-0.005066	0.002255	-0.001677
01261	13830917	-0.283895	9.818511	0.109191	-0.000525	0.003737	0.002540
01262	13830967	-0.278501	9.812515	0.117942	-0.006180	-0.001252	-0.001378
01263	13831017	-0.305294	9.818215	0.111266	-0.001930	0.001821	-0.005347
01264	13831067	-0.311739	9.835378	0.100670	-0.006547	0.000619	0.000241
01265	13831117	-0.290362	9.828310	0.114856	-0.005471	0.002833	-0.001068
01266	13831167	-0.300662	9.822605	0.107223	-0.004829	0.002877	0.000244
01267	13831217	-0.306007	9.818989	0.122120	-0.004592	0.003231	-0.003503
01268	13831267	-0.286225	9.813140	0.101342	-0.002912	0.001844	-0.001017
01269	13831317	-0.299794	9.806337	0.100830	0.000034	-0.000467	-0.004369
01270	13831367	-0.307584	9.815580	0.110818	-0.004620	0.001696	0.005013
01271	13831417	-0.294620	9.825985	0.107768	-0.001281	0.000575	-0.003755
01272	13831467	-0.313813	9.840223	0.107847	-0.005733	0.000050	-0.000855
01273	13831517	-0.299500	9.837286	0.109634	-0.005551	0.002477	-0.001265
01274	13831567	-0.290737	9.837037	0.117921	-0.003307	-0.001878	-0.001130
01275	13831617	-0.297235	9.834571	0.103098	-0.003495	-0.000107	-0.002242
01276	13831667	-0.297711	9.829082	0.104749	-0.003956	-0.001763	-0.002126
01277	13831717	-0.322425	9.820994	0.086010	-0.005388	0.001353	0.000334
01278	13831767	-0.283907	9.811605	0.110695	-0.003201	0.001841	-0.001272
01279	13831817	-0.287901	9.804546	0.119106	-0.003833	0.000506	-0.000607
01280	13831867	-0.294573	9.808277	0.117877	-0.002043	-0.000333	0.000283
01281	13831917	-0.284125	9.795590	0.103135	-0.005907	-0.000860	-0.001986
01282	13831967	-0.296917	9.811495	0.092038	-0.002059	0.002986	-0.003161
01283	13832017	-0.282503	9.832041	0.109972	-0.003330	0.002997	-0.001747
01284	13832067	-0.293489	9.817455	0.108298	-0.000083	0.000378	-0.000585
01285	13832117	-0.294078	9.826194	0.110781	-0.004014	0.002245	-0.001332
01286	13832167	-0.288337	9.818062	0.088482	-0.004220	-0.000309	0.000577
01287	13832217	-0.303066	9.825641	0.107598	-0.000091	0.000764	-0.000009
01288	13832267	-0.282482	9.826774	0.112734	-0.007183	0.000180	-0.002267
01289	13832317	-0.284094	9.819577	0.116975	-0.005108	0.001185	-0.003321
01290	13832367	-0.303736	9.821481	0.100989	-0.002766	0.000263	-0.000672
01291	13832417	-0.300185	9.811763	0.118313	-0.005554	0.001507	-0.001461
01292	13832467	-0.290479	9.807708	0.112418	-0.003769	0.001864	0.002123
01293	13832517	-0.283275	9.821845	0.108232	-0.001251	0.000805	-0.000260
01294	13832567	-0.292042	9.830167	0.115733	-0.004321	0.003947	-0.002766
01295	13832617	-0.301215	9.824574	0.101967	-0.004517	0.000876	-0.002524
01296	13832667	-0.313215	9.828601	0.107937	-0.001594	0.002211	-0.006372
01297	13832717	-0.284720	9.817852	0.120259	-0.002199	0.000530	-0.001380
01298	13832767	-0.288306	9.820226	0.117600	-0.002007	0.000603	-0.000384
01299	13832817	-0.289915	9.811378	0.105534	-0.005824	0.001629	-0.003511
01300	13832867	-0.295441	9.809533	0.112501	-0.004492	0.002438	0.002388
01301	13832917	-0.286193	9.806874	0.107885	-0.004631	0.002753	0.000272
01302	13832967	-0.305582	9.814941	0.107435	-0.001619	0.000346	-0.000773
01303	13833017	-0.296305	9.819345	0.106769	-0.005109	0.002614	-0.000109
01304	13833067	-0.288714	9.822367	0.101396	-0.004835	-0.001192	-0.000257
01305	13833117	-0.293135	9.836098	0.130693	-0.004520	0.003138	-0.002064
01306	13833167	-0.299926	9.823887	0.100882	-0.001736	0.003063	-0.000948
01307	13833217	-0.294947	9.814772	0.111744	-0.003489	-0.000297	-0.001089
01308	13833267	-0.305135	9.811244	0.117143	-0.006133	-0.001696	-0.001477
01309	13833317	-0.306364	9.816268	0.113253	-0.005327	0.004484	-0.000035
01310	13833367	-0.301847	9.829309	0.101968	-0.005411	0.003422	0.003486
01311	13833417	-0.293826	9.820411	0.116463	-0.001121	0.000612	-0.003082
01312	13833467	-0.304165	9.829513	0.117782	-0.003391	0.001803	-0.001334
01313	13833517	-0.288730	9.816662	0.102153	-0.005279	0.000669	-0.001562
01314	13833567	-0.302633	9.817449	0.116586	-0.004753	0.004326	-0.002695
01315	13833617	-0.319597	9.832221	0.114030	-0.003286	0.001775	0.000751
01316	13833667	-0.300563	9.830205	0.106739	-0.005149	0.002772	-0.001906
01317	13833717	-0.303220	9.804688	0.128645	-0.008059	0.002853	-0.001191
01318	13833767	-0.284664	9.822783	0.108536	-0.004079	0.000540	0.001669
01319	13833817	-0.302051	9.821267	0.100322	-0.003995	-0.001399	0.000315
01320	13833867	-0.299656	9.820346	0.100754	-0.006124	0.002205	-0.001393
01321	13833917	-0.289995	9.822602	0.100701	-0.004043	0.001947	-0.003129
01322	13833967	-0.303161	9.806440	0.106957	-0.003462	-0.000235	-0.002534
01323	13834017	-0.284988	9.798273	0.113367	-0.004014	0.002079	-0.002841
01324	13834067	-0.292467	9.810715	0.100443	-0.003558	0.000764	-0.003009
01325	13834117	-0.300980	9.828481	0.110920	-0.007898	-0.000276	0.000301
01326	13834167	-0.283271	9.815269	0.119642	-0.005401	0.000736	-0.000053
01327	13834217	-0.304457	9.835358	0.107503	-0.004602	0.002489	-0.003025
01328	13834267	-0.298898	9.815354	0.117112	-0.007204	0.004420	0.002468
01329	13834317	-0.289853	9.811131	0.106241	-0.005230	0.004252	-0.002664
01330	13834367	-0.297796	9.816120	0.114607	-0.003035	0.002583	-0.002131
01331	13834417	-0.287668	9.812185	0.116314	-0.006301	0.002113	0.002327
01332	13834467	-0.275639	9.802534	0.105798	-0.003195	0.001679	0.000456
01333	13834517	-0.305630	9.814413	0.126348	-0.001869	0.001385	0.000773
01334	13834567	-0.302033	9.813528	0.109822	-0.003161	-0.001681	-0.001867
01335	13834617	-0.298287	9.813916	0.118984	-0.004590	0.003331	-0.001133
01336	13834667	-0.316702	9.826917	0.106567	-0.004277	0.002661	-0.000171
01337	13834717	-0.316415	9.816713	0.091632	-0.002012	0.000895	0.001156
01338	13834767	-0.291301	9.831408	0.112894	-0.004754	0.006683	-0.001178
01339	13834817	-0.298608	9.823570	0.107874	-0.002345	0.003880	-0.004149
01340	13834867	-0.312530	9.817453	0.108748	-0.007684	0.001821	-0.002255
01341	13834917	-0.300045	9.817810	0.126071	-0.002836	0.001391	-0.001116
01342	13834967	-0.297296	9.824119	0.104309	-0.003826	-0.000688	0.000639
01343	13835017	-0.294366	9.830111	0.102079	-0.001601	0.002833	-0.002297
01344	13835067	-0.303308	9.842096	0.102901	-0.003295	-0.001493	-0.002730
01345	13835117	-0.286773	9.805061	0.117669	-0.003435	0.003221	-0.002167
01346	13835167	-0.290770	9.835343	0.135613	-0.002596	0.001044	-0.000414
01347	13835217	-0.300672	9.835551	0.113939	-0.004005	-0.000211	-0.001857
01348	13835267	-0.311898	9.830213	0.097057	-0.007263	0.000735	-0.001327
01349	13835317	-0.298917	9.824599	0.117698	-0.004736	0.002839	-0.001969
01350	13835367	-0.298901	9.817694	0.088239	-0.001985	0.003794	-0.003093
01351	13835417	-0.289206	9.821603	0.104696	-0.001073	0.001487	-0.000288
01352	13835467	-0.307593	9.813559	0.119453	-0.004862	0.003808	-0.002474
01353	13835517	-0.300534	9.819483	0.094254	-0.002888	-0.000902	-0.000229
01354	13835567	-0.316926	9.834216	0.094846	-0.004232	0.000078	0.000325
01355	13835617	-0.291508	9.820027	0.096559	-0.000678	-0.001025	-0.000077
01356	13835667	-0.315772	9.818386	0.122584	-0.002345	-0.002152	-0.002033
01357	13835717	-0.307367	9.824600	0.111067	-0.003694	0.000184	-0.001088
01358	13835767	-0.295196	9.822471	0.104338	-0.003491	0.000931	-0.000092
01359	13835817	-0.311270	9.829766	0.095156	0.000935	0.002191	-0.005000
01360	13835867	-0.300277	9.813501	0.097803	-0.002528	-0.001217	-0.000458
01361	13835917	-0.310706	9.826305	0.105183	-0.006272	0.002981	-0.000998
01362	13835967	-0.299881	9.818934	0.099338	-0.005510	0.004221	-0.000869
01363	13836017	-0.301438	9.823726	0.141748	-0.005596	0.000598	-0.001977
01364	13836067	-0.305943	9.834537	0.128972	-0.001904	-0.001588	0.000919
01365	13836117	-0.309119	9.827077	0.102694	-0.005157	-0.002332	-0.002477
01366	13836167	-0.300002	9.819332	0.088416	0.000546	0.002718	-0.000543
01367	13836217	-0.297616	9.824276	0.109088	-0.002948	0.004172	0.000375
01368	13836267	-0.289759	9.833684	0.104806	-0.003686	0.001419	0.002863
01369	13836317	-0.293734	9.832082	0.113079	-0.000727	-0.002772	-0.002427
01370	13836367	-0.313991	9.838346	0.106799	-0.004662	0.003652	-0.001320
01371	13836417	-0.295815	9.831839	0.112161	-0.002722	0.004143	-0.000332
01372	13836467	-0.306540	9.830237	0.114933	-0.005665	0.001895	-0.000367
01373	13836517	-0.298176	9.808450	0.119699	-0.005703	0.002252	0.000561
01374	13836567	-0.303795	9.806338	0.128594	-0.006264	0.001358	-0.004826
01375	13836617	-0.310112	9.835496	0.094349	-0.006153	0.005106	-0.003617
01376	13836667	-0.305802	9.822379	0.118029	-0.005827	0.000690	-0.003062
01377	13836717	-0.302404	9.810272	0.120893	-0.004637	0.000386	-0.005314
01378	13836767	-0.299829	9.811274	0.104340	-0.004226	0.003952	-0.002251
01379	13836817	-0.289704	9.796855	0.108843	-0.005156	0.004064	-0.000393
01380	13836867	-0.320836	9.822567	0.124090	-0.004017	-0.000952	-0.003268
01381	13836917	-0.285884	9.809195	0.111578	0.000583	-0.000584	-0.003286
01382	13836967	-0.293559	9.838484	0.114191	-0.007965	-0.001444	-0.002206
01383	13837017	-0.293426	9.821559	0.119111	-0.003701	0.001279	-0.002555
01384	13837067	-0.285213	9.815662	0.108332	-0.004753	0.004225	-0.004110
01385	13837117	-0.299070	9.812980	0.101748	-0.005478	0.002059	-0.000464
01386	13837167	-0.308406	9.834167	0.089194	-0.001441	0.001801	-0.002914
01387	13837217	-0.282435	9.807942	0.119029	-0.001848	0.000574	0.000639
01388	13837267	-0.295908	9.815269	0.125492	-0.007579	0.004993	0.001095
01389	13837317	-0.293265	9.817732	0.106007	-0.003862	0.001436	-0.001243
01390	13837367	-0.299086	9.815953	0.093516	-0.004363	0.000142	-0.000379
01391	13837417	-0.304331	9.809266	0.107515	-0.004560	0.000137	-0.001535
01392	13837467	-0.293883	9.807986	0.106830	-0.007326	-0.000338	-0.002237
01393	13837517	-0.303478	9.815420	0.093815	-0.005829	-0.000446	-0.005378
01394	13837567	-0.303072	9.827848	0.103608	-0.002203	0.001858	-0.000054
01395	13837617	-0.311295	9.838433	0.102674	-0.004526	-0.001639	-0.000101
01396	13837667	-0.305503	9.813168	0.099840	-0.005117	0.002037	0.001971
01397	13837717	-0.308787	9.828906	0.122891	-0.007017	0.001930	-0.002860
01398	13837767	-0.285212	9.823566	0.103565	-0.005817	0.001498	-0.001555
01399	13837817	-0.299304	9.815385	0.099409	-0.009099	0.000318	0.000819
01400	13837867	-0.284632	9.811780	0.114303	-0.005148	-0.001456	-0.000839
01401	13837917	-0.292637	9.819614	0.123013	-0.005173	0.002579	-0.000975
01402	13837967	-0.298343	9.827699	0.101953	-0.005741	0.001180	-0.001654
01403	13838017	-0.306322	9.824972	0.118320	-0.005022	0.002673	-0.003600
01404	13838067	-0.288192	9.814844	0.112740	-0.007789	0.001371	-0.000207
01405	13838117	-0.304182	9.818675	0.128247	-0.002512	0.001001	-0.005702
01406	13838167	-0.284984	9.826286	0.111157	-0.002200	0.000398	-0.001927
01407	13838217	-0.294877	9.815990	0.094438	-0.003262	0.001736	-0.001306
01408	13838267	-0.308567	9.821297	0.108942	-0.003880	-0.001117	-0.002182
01409	13838317	-0.303455	9.832432	0.098083	-0.002805	0.000060	-0.005767
01410	13838367	-0.304093	9.824975	0.120138	-0.003165	0.002906	-0.000495
01411	13838417	-0.288708	9.821111	0.105803	-0.005946	0.002789	-0.000652
01412	13838467	-0.290154	9.821506	0.094722	-0.005788	-0.000500	-0.002304
01413	13838517	-0.283092	9.828668	0.097326	-0.007005	0.003704	-0.002088
01414	13838567	-0.293434	9.817801	0.101675	-0.004277	0.001495	-0.001591
01415	13838617	-0.290268	9.813914	0.125444	-0.005855	-0.001374	-0.002537
01416	13838667	-0.285304	9.823209	0.111453	-0.004657	0.002193	-0.004408
01417	13838717	-0.284605	9.831019	0.112307	-0.001698	0.000898	-0.001378
01418	13838767	-0.311157	9.834715	0.113213	-0.001343	-0.000420	-0.001957
01419	13838817	-0.312713	9.832686	0.120707	-0.005110	0.000650	0.000714
01420	13838867	-0.292397	9.816606	0.102637	-0.004128	0.000361	-0.005348
01421	13838917	-0.300574	9.814956	0.111077	-0.005838	0.002406	-0.000432
01422	13838967	-0.305320	9.815970	0.102886	-0.003758	0.000411	0.000549
01423	13839017	-0.293422	9.826086	0.117673	-0.002021	0.000954	-0.001317
01424	13839067	-0.293982	9.820896	0.115541	-0.003804	0.004026	0.000475
01425	13839117	-0.303634	9.820141	0.095248	-0.005397	0.003575	-0.001258
01426	13839167	-0.295419	9.824133	0.104633	-0.006039	0.001728	0.001649
01427	13839217	-0.316114	9.826082	0.131010	-0.005486	-0.000816	-0.000093
01428	13839267	-0.303665	9.808203	0.115684	-0.007892	-0.000503	-0.001372
01429	13839317	-0.299119	9.831037	0.115383	-0.005077	0.002746	0.000115
01430	13839367	-0.310030	9.822930	0.109104	-0.002725	0.003943	-0.002413
01431	13839417	-0.294013	9.809243	0.101950	-0.004083	0.004634	-0.000101
01432	13839467	-0.287390	9.829239	0.103069	-0.004490	0.001073	-0.001149
01433	13839517	-0.301114	9.822654	0.087866	-0.004913	0.001094	-0.003739
01434	13839567	-0.295662	9.819726	0.113196	-0.006121	0.004272	-0.001283
01435	13839617	-0.303389	9.822253	0.112380	-0.009005	0.002185	-0.002344
01436	13839667	-0.314109	9.827269	0.101486	-0.003473	-0.000913	-0.003560
01437	13839717	-0.291061	9.807452	0.128495	-0.005236	0.001582	0.000783
01438	13839767	-0.293645	9.817104	0.131184	-0.004922	-0.000521	-0.002309
01439	13839817	-0.307021	9.822481	0.125582	-0.000775	-0.000160	-0.003692
01440	13839867	-0.284196	9.827803	0.090779	-0.002141	0.004961	0.000375
01441	13839917	-0.280106	9.831612	0.108870	-0.006522	0.000592	-0.001849
01442	13839967	-0.283936	9.814835	0.132130	-0.008100	-0.001020	-0.001980
01443	13840017	-0.295819	9.837193	0.087767	-0.003935	0.000505	-0.003424
01444	13840067	-0.303158	9.823021	0.109130	-0.003657	-0.000139	-0.003458
01445	13840117	-0.290409	9.825075	0.093792	-0.005825	0.001832	-0.001299
01446	13840167	-0.303691	9.837843	0.101054	-0.005408	0.001907	-0.000204
01447	13840217	-0.292823	9.828758	0.114395	-0.004390	0.001688	-0.004765
01448	13840267	-0.297564	9.815699	0.111275	-0.005478	0.000934	-0.002775
01449	13840317	-0.291568	9.820585	0.106892	-0.003011	-0.000052	-0.000514
01450	13840367	-0.298468	9.821335	0.114108	-0.002141	0.000132	0.003523
01451	13840417	-0.295930	9.824330	0.106408	-0.002046	0.000838	-0.000574
01452	13840467	-0.287407	9.796455	0.105498	-0.006004	-0.000325	0.002473
01453	13840517	-0.286426	9.809567	0.102824	-0.004254	0.001767	-0.000982
01454	13840567	-0.288068	9.808279	0.107830	-0.002513	0.000475	0.001058
01455	13840617	-0.302479	9.813881	0.102636	-0.003196	0.005817	-0.001989
01456	13840667	-0.301145	9.818669	0.116192	-0.006910	0.000944	-0.000431
01457	13840717	-0.285439	9.829859	0.110532	-0.005592	0.000841	0.001903
01458	13840767	-0.303406	9.829314	0.116106	-0.003870	0.002001	0.000845
01459	13840817	-0.298751	9.836351	0.109356	-0.005538	0.001869	-0.001425
01460	13840867	-0.325581	9.820683	0.103677	-0.003712	-0.000224	-0.000189
01461	13840917	-0.287529	9.814758	0.103111	-0.004357	0.000726	-0.002686
01462	13840967	-0.303098	9.816883	0.122568	-0.004084	0.000444	-0.000506
01463	13841017	-0.301474	9.826520	0.114257	-0.006469	-0.001018	-0.000704
01464	13841067	-0.280310	9.817821	0.095154	-0.004725	0.001592	-0.000725
01465	13841117	-0.298792	9.824305	0.105929	-0.000907	0.001141	-0.001024
01466	13841167	-0.290740	9.817836	0.116598	-0.006729	0.002004	-0.002415
01467	13841217	-0.296473	9.814326	0.124447	-0.006815	0.002681	-0.004143
01468	13841267	-0.302203	9.820968	0.119720	-0.003436	0.001132	-0.002396
01469	13841317	-0.297278	9.813188	0.120867	-0.006130	0.003572	-0.001319
01470	13841367	-0.290685	9.821989	0.109047	-0.003206	0.004141	-0.000428
01471	13841417	-0.288220	9.796097	0.097784	-0.001315	0.002781	-0.003226
01472	13841467	-0.278846	9.807701	0.106699	-0.006699	0.004304	-0.001955
01473	13841517	-0.293888	9.823958	0.116996	-0.005108	0.003554	-0.002284
01474	13841567	-0.278637	9.813860	0.107380	-0.005691	0.002871	-0.000588
01475	13841617	-0.296137	9.822930	0.104764	-0.004835	0.000911	-0.000407
01476	13841667	-0.294138	9.820781	0.092065	-0.003434	0.001938	-0.001781
01477	13841717	-0.296185	9.813596	0.094943	-0.003202	-0.002123	0.000471
01478	13841767	-0.282360	9.830989	0.101245	-0.009381	0.001158	0.000659
01479	13841817	-0.292796	9.828770	0.098173	-0.007124	0.003717	0.000606
01480	13841867	-0.292793	9.818855	0.110047	-0.006362	0.002824	0.000409
01481	13841917	-0.289801	9.812221	0.097071	-0.003622	0.001902	-0.002359
01482	13841967	-0.301413	9.825499	0.103304	-0.002108	-0.000426	-0.001512
01483	13842017	-0.288319	9.821587	0.106039	-0.007061	0.001389	-0.001746
01484	13842067	-0.301303	9.802703	0.089479	-0.004180	0.002573	-0.001266
01485	13842117	-0.311058	9.850582	0.115607	-0.003741	0.000966	0.000010
01486	13842167	-0.290203	9.824439	0.119652	-0.004086	0.001045	-0.005956
01487	13842217	-0.304899	9.836001	0.112015	-0.003355	0.000750	-0.000315
01488	13842267	-0.295369	9.804671	0.105085	-0.005408	0.002106	0.001360
01489	13842317	-0.285138	9.815023	0.103532	-0.003425	-0.000586	-0.004201
01490	13842367	-0.317638	9.853439	0.093938	-0.006903	0.002619	-0.001418
01491	13842417	-0.296752	9.824648	0.115747	-0.001988	0.000799	-0.002083
01492	13842467	-0.285785	9.814264	0.106148	-0.002722	0.000822	-0.000512
01493	13842517	-0.311191	9.825582	0.105839	-0.005475	0.004001	-0.001030
01494	13842567	-0.298007	9.823130	0.105422	-0.001733	0.000234	0.001600
01495	13842617	-0.317299	9.810800	0.121026	-0.005585	0.002453	-0.000235
01496	13842667	-0.297932	9.810610	0.117960	-0.003202	0.001042	0.001127
01497	13842717	-0.307954	9.825333	0.093100	-0.002850	-0.000246	-0.000674
01498	13842767	-0.293625	9.798792	0.118768	-0.008088	-0.000505	-0.002105
01499	13842817	-0.315099	9.832415	0.105462	-0.008791	0.005850	-0.000080
01500	13842867	-0.293556	9.817917	0.093018	-0.003035	0.000224	-0.006122
01501	13842917	-0.303003	9.825991	0.132169	-0.005325	0.000356	-0.000827
01502	13842967	-0.293620	9.816787	0.121156	-0.007149	0.000127	-0.003617
01503	13843017	-0.280636	9.814245	0.111496	-0.006735	0.001267	-0.001398
01504	13843067	-0.294926	9.818378	0.109109	-0.005531	-0.001356	-0.000419
01505	13843117	-0.274064	9.798954	0.108332	-0.005729	0.000198	0.003083
01506	13843167	-0.284081	9.811724	0.102894	-0.006353	0.003700	0.001150
01507	13843217	-0.299962	9.822412	0.104833	-0.004597	0.001498	-0.000533
01508	13843267	-0.299675	9.809916	0.115639	-0.007131	0.000582	-0.003096
01509	13843317	-0.301317	9.825895	0.124019	-0.005111	0.002520	-0.002801
01510	13843367	-0.288009	9.810248	0.118746	-0.007760	0.002380	-0.001192
01511	13843417	-0.286861	9.813961	0.124916	-0.006089	0.000151	-0.001499
01512	13843467	-0.306454	9.828383	0.112288	-0.004615	0.001050	0.000428
01513	13843517	-0.292632	9.818190	0.123232	-0.004546	0.001888	-0.000757
01514	13843567	-0.279089	9.806958	0.108483	-0.003136	-0.001385	-0.002249
01515	13843617	-0.305202	9.822850	0.102141	-0.001848	0.001650	-0.000957
01516	13843667	-0.301232	9.830900	0.107504	-0.006309	0.001085	0.000525
01517	13843717	-0.311215	9.818245	0.104436	-0.006746	0.000194	-0.004794
01518	13843767	-0.298976	9.821940	0.105520	-0.004247	0.002538	-0.000942
01519	13843817	-0.310418	9.833615	0.108756	-0.006696	0.002074	-0.002765
01520	13843867	-0.295181	9.819730	0.113391	-0.003051	0.000040	-0.001026
01521	13843917	-0.290362	9.813822	0.100431	-0.003433	0.000803	-0.003649
01522	13843967	-0.299022	9.823099	0.091348	-0.002312	0.000890	-0.003304
01523	13844017	-0.293318	9.822040	0.103423	-0.006656	0.001750	-0.002322
01524	13844067	-0.300871	9.814070	0.121844	-0.004861	0.002915	-0.000589
01525	13844117	-0.304361	9.817718	0.128998	-0.003350	0.001521	-0.002491
01526	13844167	-0.301774	9.833119	0.101242	-0.004856	0.001558	-0.001623
01527	13844217	-0.291807	9.821470	0.095264	-0.006106	0.002699	-0.001195
01528	13844267	-0.285176	9.814802	0.117652	-0.004674	-0.000115	-0.001151
01529	13844317	-0.306823	9.820595	0.109381	-0.001787	0.000712	-0.000064
01530	13844367	-0.293549	9.826568	0.101920	-0.005109	0.003721	0.000281
01531	13844417	-0.305873	9.831961	0.111751	-0.003599	0.003321	-0.002704
01532	13844467	-0.307925	9.809186	0.109961	-0.007657	0.003321	-0.000449
01533	13844517	-0.301884	9.819670	0.111744	-0.005239	-0.001679	-0.002792
01534	13844567	-0.299770	9.808368	0.107714	-0.004487	0.002119	-0.000626
01535	13844617	-0.296608	9.835167	0.126403	-0.006171	0.004027	0.001696
01536	13844667	-0.296267	9.845347	0.112468	-0.005353	-0.002134	-0.002280
01537	13844717	-0.292287	9.819128	0.124189	-0.003920	0.000084	-0.004424
01538	13844767	-0.300132	9.825888	0.110081	-0.002795	0.000910	-0.004292
01539	13844817	-0.310238	9.831163	0.114002	-0.006565	0.000538	0.004439
01540	13844867	-0.298723	9.813509	0.113536	-0.000161	0.001802	-0.001826
01541	13844917	-0.280849	9.814302	0.122781	-0.005836	0.002617	0.002389
01542	13844967	-0.264725	9.818384	0.117045	-0.002131	0.002448	-0.000602
01543	13845017	-0.283101	9.818822	0.120807	-0.005541	0.000934	-0.001564
01544	13845067	-0.300464	9.822397	0.105763	-0.005126	-0.000191	-0.002333
01545	13845117	-0.301929	9.822949	0.114658	-0.004295	-0.000077	-0.001469
01546	13845167	-0.302561	9.835491	0.116073	-0.003204	0.003104	-0.000815
01547	13845217	-0.298303	9.822854	0.108366	-0.003909	0.004292	0.000667
01548	13845267	-0.300161	9.836240	0.100028	-0.003958	0.003476	-0.003217
01549	13845317	-0.289412	9.832476	0.106883	-0.004245	0.000208	-0.003588
01550	13845367	-0.292478	9.820629	0.103826	-0.005165	0.003231	-0.002219
01551	13845417	-0.277523	9.830547	0.118585	-0.003680	0.003903	-0.001070
01552	13845467	-0.293494	9.811594	0.119170	-0.004148	0.001377	-0.001657
01553	13845517	-0.296786	9.796730	0.111027	-0.003303	0.002206	0.000234
01554	13845567	-0.295599	9.827219	0.119892	-0.004128	0.004993	-0.002119
01555	13845617	-0.296410	9.817618	0.111051	-0.005283	0.003937	-0.002665
01556	13845667	-0.320075	9.825145	0.111133	-0.005464	0.003545	-0.002828
01557	13845717	-0.303687	9.823925	0.111262	-0.002466	0.000124	0.002498
01558	13845767	-0.297549	9.814708	0.113945	-0.004949	0.004623	-0.001863
01559	13845817	-0.315760	9.825746	0.106629	-0.005768	0.001057	-0.002969
01560	13845867	-0.282696	9.811780	0.100165	-0.004906	0.002038	-0.002645
01561	13845917	-0.292813	9.817369	0.114783	-0.002854	0.000980	-0.001409
01562	13845967	-0.282259	9.818167	0.102092	-0.003839	0.002937	-0.000691
01563	13846017	-0.298814	9.813748	0.098121	-0.004978	0.000463	-0.000153
01564	13846067	-0.303311	9.818374	0.117769	-0.004353	0.001859	-0.002100
01565	13846117	-0.286001	9.816509	0.098183	-0.000919	0.001629	-0.000001
01566	13846167	-0.298799	9.804058	0.096260	-0.006845	0.000453	-0.003029
01567	13846217	-0.302130	9.821395	0.107512	-0.005504	-0.001556	-0.004009
01568	13846267	-0.304786	9.823190	0.111568	-0.004222	0.001793	-0.000947
01569	13846317	-0.299473	9.823424	0.132153	-0.004908	0.001233	-0.001626
01570	13846367	-0.308480	9.831066	0.105815	-0.003838	0.002604	-0.004119
01571	13846417	-0.303041	9.825104	0.127857	-0.003902	0.002703	-0.003412
01572	13846467	-0.303919	9.838441	0.123776	-0.004578	0.003546	0.004063
01573	13846517	-0.295912	9.817762	0.116998	-0.002735	0.004471	-0.000329
01574	13846567	-0.289662	9.808586	0.117567	-0.007334	0.002933	-0.002889
01575	13846617	-0.292494	9.811783	0.107625	-0.003912	0.000121	-0.000580
01576	13846667	-0.280602	9.798528	0.115235	-0.003417	0.002815	0.001358
01577	13846717	-0.284348	9.810780	0.102525	-0.002869	0.003400	-0.002613
01578	13846767	-0.293547	9.815023	0.127394	-0.008419	-0.002212	0.000193
01579	13846817	-0.283069	9.819055	0.105521	-0.006175	-0.001407	-0.003017
01580	13846867	-0.280290	9.828340	0.105368	-0.003823	0.001253	-0.001433
01581	13846917	-0.298037	9.823133	0.105532	-0.004687	0.000172	-0.001759
01582	13846967	-0.300655	9.826443	0.104062	-0.001456	-0.000671	0.001112
01583	13847017	-0.278902	9.818501	0.098997	-0.007137	0.001874	-0.001134
01584	13847067	-0.284520	9.826217	0.116225	-0.005582	0.002588	0.001784
01585	13847117	-0.293792	9.826165	0.097134	-0.003272	0.000037	-0.000963
01586	13847167	-0.268229	9.821817	0.091816	-0.008797	0.000486	-0.003030
01587	13847217	-0.291224	9.803219	0.110806	-0.005819	-0.000593	-0.003460
01588	13847267	-0.300857	9.826029	0.115888	-0.006887	0.000838	-0.004666
01589	13847317	-0.312218	9.824037	0.112857	-0.006931	0.001097	-0.004179
01590	13847367	-0.283240	9.813641	0.117672	-0.003327	-0.000185	0.000447
01591	13847417	-0.300349	9.824212	0.126267	-0.001392	0.001459	-0.001024
01592	13847467	-0.289485	9.827395	0.112878	-0.003952	0.000647	0.003050
01593	13847517	-0.301123	9.804348	0.106263	-0.004104	0.000251	0.001093
01594	13847567	-0.309584	9.841879	0.111632	-0.006769	0.003363	-0.002760
01595	13847617	-0.277193	9.809368	0.106860	-0.004864	0.001945	-0.001974
01596	13847667	-0.314195	9.830605	0.115942	-0.005216	0.000616	-0.002138
01597	13847717	-0.300767	9.820919	0.124209	-0.001998	0.003257	-0.001522
01598	13847767	-0.289906	9.830876	0.117966	-0.004446	0.001890	-0.000822
01599	13847817	-0.296876	9.820322	0.104246	-0.001551	0.002163	-0.002780
01600	13847867	-0.298433	9.821144	0.126833	-0.003771	0.003609	-0.002926
01601	13847917	-0.294115	9.817410	0.111013	-0.004555	0.004044	-0.004590
01602	13847967	-0.289371	9.827001	0.108401	-0.005598	-0.002526	-0.003308
01603	13848017	-0.293617	9.835095	0.087080	-0.004767	0.003754	-0.002765
01604	13848067	-0.289609	9.817843	0.101853	-0.002044	0.002841	0.000072
01605	13848117	-0.299113	9.815926	0.126401	-0.004563	-0.000759	-0.003174
01606	13848167	-0.308015	9.813592	0.116097	-0.002273	-0.000238	-0.001989
01607	13848217	-0.294683	9.818565	0.112185	-0.003967	-0.000332	-0.001284
01608	13848267	-0.298002	9.820947	0.109164	-0.005178	0.001749	0.000558
01609	13848317	-0.289953	9.816976	0.111385	-0.010481	0.001457	-0.002635
01610	13848367	-0.302030	9.816258	0.086574	-0.006305	0.003689	-0.004105
01611	13848417	-0.319085	9.824999	0.106046	-0.001899	0.002094	-0.002006
01612	13848467	-0.276728	9.791397	0.104004	-0.002749	-0.000535	-0.002253
01613	13848517	-0.302989	9.824057	0.103572	-0.002026	-0.001746	0.001755
01614	13848567	-0.303727	9.829658	0.124345	-0.007364	0.002132	-0.000075
01615	13848617	-0.296202	9.824414	0.116304	-0.003709	0.001970	0.000429
01616	13848667	-0.314608	9.831480	0.105167	-0.006291	0.002504	-0.001545
01617	13848717	-0.309594	9.824324	0.111360	-0.006760	-0.001026	-0.001697
01618	13848767	-0.299592	9.825394	0.111805	-0.005098	0.003068	-0.003921
01619	13848817	-0.296127	9.803312	0.100244	-0.002931	0.001398	-0.001755
01620	13848867	-0.274892	9.795197	0.105014	-0.007407	0.005516	-0.001660
01621	13848917	-0.285590	9.813174	0.115290	-0.004620	-0.000985	-0.000643
01622	13848967	-0.300187	9.804579	0.107016	-0.003375	0.001393	0.001419
01623	13849017	-0.286377	9.820241	0.102864	-0.007588	0.002930	-0.003082
01624	13849067	-0.307633	9.817168	0.100099	-0.005872	0.004776	0.001858
01625	13849117	-0.293750	9.826274	0.120900	-0.004780	0.000039	-0.002559
01626	13849167	-0.292444	9.819117	0.108917	-0.007594	-0.000676	0.002445
01627	13849217	-0.306611	9.825161	0.105627	-0.005594	-0.002161	0.001920
01628	13849267	-0.305051	9.822463	0.112975	-0.003735	0.002281	-0.004312
01629	13849317	-0.279314	9.806140	0.115739	-0.003635	0.000355	-0.000767
01630	13849367	-0.298966	9.818274	0.096737	-0.006957	0.001135	-0.001232
01631	13849417	-0.301858	9.817811	0.109071	-0.002710	0.000399	-0.002820
01632	13849467	-0.297855	9.813655	0.120102	-0.002883	-0.000022	-0.001699
01633	13849517	-0.303648	9.823336	0.118755	-0.003999	-0.000332	-0.001404
01634	13849567	-0.304483	9.816531	0.097923	-0.004362	0.006612	0.002603
01635	13849617	-0.287876	9.820918	0.118950	-0.006726	0.000107	-0.000697
01636	13849667	-0.297188	9.827972	0.100064	-0.007366	-0.000135	-0.002778
01637	13849717	-0.298210	9.814997	0.094720	-0.003779	0.002705	-0.003476
01638	13849767	-0.300549	9.808888	0.119887	-0.003877	0.002125	-0.000374
01639	13849817	-0.288941	9.810640	0.107830	-0.003140	-0.001255	-0.002673
01640	13849867	-0.312836	9.817152	0.112597	-0.004767	0.001717	-0.001905
01641	13849917	-0.295588	9.808411	0.077641	-0.002149	0.002917	-0.002709
01642	13849967	-0.316844	9.826716	0.119508	-0.002547	-0.000640	-0.002401
01643	13850017	-0.321344	9.829408	0.110881	-0.002214	0.001984	-0.002709
01644	13850067	-0.295534	9.807957	0.107404	-0.002841	0.001782	-0.000275
01645	13850117	-0.300838	9.802381	0.110586	-0.006093	0.001698	0.002363
01646	13850167	-0.285128	9.816716	0.101360	-0.003182	0.003289	-0.002991
01647	13850217	-0.296144	9.835129	0.113602	-0.002562	0.002912	-0.002645
01648	13850267	-0.283023	9.828876	0.114765	-0.003226	0.003607	-0.004626
01649	13850317	-0.290621	9.818491	0.105026	-0.003477	0.005706	-0.001984
01650	13850367	-0.298975	9.825984	0.104606	-0.004657	0.003754	0.000670
01651	13850417	-0.298061	9.798736	0.118726	-0.005622	0.001536	-0.000557
01652	13850467	-0.281908	9.810637	0.098183	-0.000664	0.001529	-0.001466
01653	13850517	-0.298711	9.798316	0.113857	-0.003040	-0.000962	0.002337
01654	13850567	-0.290482	9.814260	0.087324	-0.005784	0.001533	-0.001809
01655	13850617	-0.299585	9.819897	0.114722	-0.006895	0.001153	-0.004406
01656	13850667	-0.289130	9.814110	0.098043	-0.004878	-0.001968	-0.001157
01657	13850717	-0.292246	9.828715	0.117498	-0.004328	0.000302	-0.000567
01658	13850767	-0.286562	9.822188	0.099267	-0.007145	0.000319	-0.000210
01659	13850817	-0.291218	9.831869	0.113791	-0.002744	0.001953	0.002994
01660	13850867	-0.301544	9.825397	0.125761	-0.007289	0.001765	-0.000842
01661	13850917	-0.303490	9.830759	0.114426	-0.005178	0.002673	-0.002731
01662	13850967	-0.289566	9.820324	0.109984	-0.001989	0.004953	-0.004363
01663	13851017	-0.302658	9.820457	0.121831	-0.003842	-0.000212	-0.002362
01664	13851067	-0.299126	9.813229	0.101183	-0.002864	-0.001673	-0.000872
01665	13851117	-0.298099	9.813320	0.126891	-0.004420	-0.000897	-0.000930
01666	13851167	-0.282391	9.816815	0.112440	-0.006561	0.003805	-0.003911
