PacketCounter	SampleTimeFine	Acc_X	Acc_Y	Acc_Z	Gyr_X	Gyr_Y	Gyr_Z
00001	12772917	-0.139604	0.218469	-9.836346	-0.001878	0.001447	-0.002152
00002	12772967	-0.135005	0.216990	-9.807372	-0.006726	0.001173	-0.001209
00003	12773017	-0.132473	0.236223	-9.831362	0.000025	0.001902	-0.001895
00004	12773067	-0.134643	0.235224	-9.799944	-0.008094	-0.002082	-0.001445
00005	12773117	-0.150605	0.231560	-9.782611	-0.005245	0.000875	-0.001436
00006	12773167	-0.161003	0.253668	-9.796227	-0.003398	0.003935	-0.005557
00007	12773217	-0.161243	0.238266	-9.839365	-0.006004	0.003739	0.000376
00008	12773267	-0.105750	0.211879	-9.827891	-0.001990	0.002996	-0.001630
00009	12773317	-0.124048	0.215755	-9.815097	-0.003839	-0.000492	-0.003533
00010	12773367	-0.139098	0.215321	-9.809267	-0.006457	-0.000206	0.000932
00011	12773417	-0.140718	0.224689	-9.786733	-0.007213	0.001486	0.000492
00012	12773467	-0.136418	0.223184	-9.811683	-0.004579	0.001983	-0.001597
00013	12773517	-0.129644	0.216610	-9.793978	-0.005849	0.001738	-0.000406
00014	12773567	-0.138807	0.215818	-9.802318	-0.001808	0.001356	-0.000550
00015	12773617	-0.132134	0.197155	-9.825117	-0.006428	-0.000633	-0.003812
00016	12773667	-0.141628	0.218400	-9.815005	-0.004262	0.000984	-0.002944
00017	12773717	-0.119542	0.229193	-9.828544	-0.008947	0.003650	-0.001124
00018	12773767	-0.149542	0.236377	-9.820485	-0.002835	-0.000668	-0.001933
00019	12773817	-0.143947	0.234073	-9.817873	-0.004347	0.002599	-0.002168
00020	12773867	-0.147903	0.219179	-9.821447	-0.005282	-0.001290	-0.002440
00021	12773917	-0.137614	0.214400	-9.814308	-0.002172	0.001404	-0.004970
00022	12773967	-0.141183	0.210039	-9.794874	-0.005347	0.001165	-0.000637
00023	12774017	-0.142092	0.201658	-9.818113	-0.007066	0.003681	-0.003628
00024	12774067	-0.138413	0.196322	-9.825082	-0.005116	0.003879	-0.002126
00025	12774117	-0.146820	0.222122	-9.814506	-0.003582	-0.001653	-0.004850
00026	12774167	-0.157916	0.226716	-9.812291	-0.005635	0.003931	-0.003407
00027	12774217	-0.134813	0.213099	-9.797786	-0.007303	0.001425	0.000527
00028	12774267	-0.138368	0.237420	-9.819108	-0.003256	-0.002418	-0.000273
00029	12774317	-0.131794	0.220378	-9.798284	-0.003069	0.000653	-0.001924
00030	12774367	-0.136463	0.241515	-9.827503	-0.007687	-0.001945	-0.001444
00031	12774417	-0.135713	0.240862	-9.821275	-0.003725	0.001023	-0.002594
00032	12774467	-0.150998	0.226311	-9.816876	-0.002675	0.003567	-0.000723
00033	12774517	-0.138353	0.219432	-9.798012	-0.004856	0.004753	-0.001771
00034	12774567	-0.145136	0.225601	-9.795339	-0.002600	0.005310	-0.001583
00035	12774617	-0.122556	0.234952	-9.810317	-0.004078	0.002445	0.000043
00036	12774667	-0.144513	0.238772	-9.819069	-0.000680	0.001918	-0.003684
00037	12774717	-0.149683	0.235390	-9.831029	-0.003569	0.000092	-0.004264
00038	12774767	-0.124888	0.214995	-9.828279	-0.001481	-0.000067	-0.004274
00039	12774817	-0.130286	0.221932	-9.821547	-0.003408	-0.000571	0.000443
00040	12774867	-0.161822	0.233501	-9.827135	-0.003569	-0.000744	-0.001705
00041	12774917	-0.129638	0.217800	-9.830414	-0.002956	0.002140	-0.001982
00042	12774967	-0.145002	0.238260	-9.825540	-0.004891	-0.001480	-0.002284
00043	12775017	-0.145359	0.225530	-9.804680	-0.004508	0.002025	0.001803
00044	12775067	-0.129548	0.219282	-9.817704	-0.003634	0.000383	-0.002629
00045	12775117	-0.123891	0.199595	-9.811741	-0.004595	-0.000726	-0.001515
00046	12775167	-0.124602	0.213082	-9.819641	-0.005859	0.003925	-0.003888
00047	12775217	-0.153572	0.218598	-9.812552	0.000332	0.000560	0.000410
00048	12775267	-0.133407	0.218918	-9.806426	-0.005957	-0.000078	-0.003429
00049	12775317	-0.150134	0.232533	-9.813764	-0.005532	0.003673	-0.004144
00050	12775367	-0.131350	0.221298	-9.838547	-0.003602	-0.000878	-0.004143
00051	12775417	-0.117203	0.212168	-9.830950	-0.007480	0.000641	-0.000377
00052	12775467	-0.141262	0.222774	-9.821247	-0.004475	-0.000373	-0.000933
00053	12775517	-0.130612	0.230786	-9.823458	-0.006504	0.000277	0.000999
00054	12775567	-0.138352	0.213987	-9.823895	-0.001327	-0.004291	-0.004747
00055	12775617	-0.141090	0.201889	-9.808780	-0.002104	-0.001258	0.000849
00056	12775667	-0.146722	0.218243	-9.795091	-0.002065	0.004481	-0.000656
00057	12775717	-0.134608	0.217234	-9.802103	-0.001394	-0.000971	-0.005113
00058	12775767	-0.136762	0.224676	-9.806887	-0.001236	0.001498	-0.001192
00059	12775817	-0.139851	0.209367	-9.825798	-0.005148	0.000717	-0.000798
00060	12775867	-0.154660	0.230966	-9.811594	-0.002776	0.002631	-0.000954
00061	12775917	-0.138440	0.209047	-9.820293	-0.003934	0.000542	-0.002437
00062	12775967	-0.132517	0.230258	-9.821048	-0.003452	-0.000449	-0.001289
00063	12776017	-0.155106	0.239295	-9.840827	-0.005225	0.000102	-0.001121
00064	12776067	-0.140430	0.226707	-9.802077	-0.002052	0.001028	-0.000840
00065	12776117	-0.150378	0.235279	-9.825752	-0.003665	0.001285	-0.002431
00066	12776167	-0.141313	0.223778	-9.828675	-0.000582	-0.003011	0.000353
00067	12776217	-0.145998	0.232191	-9.794138	-0.000590	0.001316	-0.001030
00068	12776267	-0.144848	0.226148	-9.812357	-0.004395	0.003179	-0.003029
00069	12776317	-0.157771	0.228140	-9.806780	-0.009116	0.002904	-0.001381
00070	12776367	-0.147475	0.240184	-9.816908	-0.004334	-0.000855	-0.003178
00071	12776417	-0.125211	0.216213	-9.808139	-0.007806	0.001664	-0.004088
00072	12776467	-0.134980	0.231353	-9.835657	-0.002401	0.003829	-0.002392
00073	12776517	-0.139208	0.228369	-9.813106	-0.004745	-0.000963	-0.003406
00074	12776567	-0.126174	0.223073	-9.818925	-0.001246	0.004083	0.000972
00075	12776617	-0.142476	0.229419	-9.823637	-0.002657	0.001692	-0.002912
00076	12776667	-0.124442	0.219851	-9.796880	-0.006823	0.002167	-0.001172
00077	12776717	-0.145908	0.237494	-9.807325	-0.005575	0.003158	-0.002578
00078	12776767	-0.144399	0.213282	-9.791986	-0.005224	0.000198	0.000323
00079	12776817	-0.124662	0.210265	-9.810786	-0.004371	0.001507	-0.001275
00080	12776867	-0.112893	0.206984	-9.802688	-0.004619	-0.002089	-0.003448
00081	12776917	-0.140272	0.224811	-9.813098	-0.005797	0.002290	-0.000116
00082	12776967	-0.133239	0.221518	-9.837815	-0.006309	-0.000012	-0.000800
00083	12777017	-0.122042	0.217977	-9.833082	-0.004146	0.000115	-0.003335
00084	12777067	-0.150371	0.232136	-9.820483	-0.004463	0.002243	-0.002422
00085	12777117	-0.138227	0.221978	-9.815264	-0.003051	-0.000963	-0.001613
00086	12777167	-0.142043	0.236636	-9.827711	-0.005734	0.000190	-0.001379
00087	12777217	-0.138481	0.232600	-9.826532	-0.003505	-0.000744	-0.002953
00088	12777267	-0.143416	0.225735	-9.826985	-0.007240	0.000165	-0.000922
00089	12777317	-0.127454	0.219218	-9.805736	-0.006531	-0.000056	-0.002916
00090	12777367	-0.133457	0.215581	-9.795880	-0.003462	-0.000028	-0.001323
00091	12777417	-0.164151	0.226108	-9.805786	-0.006647	0.002789	-0.000523
00092	12777467	-0.145797	0.221193	-9.809954	-0.007111	0.000364	0.000680
00093	12777517	-0.129732	0.209391	-9.805003	-0.004014	0.001480	0.000103
00094	12777567	-0.125551	0.216994	-9.818448	-0.004780	-0.001732	-0.000010
00095	12777617	-0.154425	0.221514	-9.828362	-0.002491	0.003798	-0.001299
00096	12777667	-0.112779	0.215237	-9.827619	0.001073	0.001143	-0.001647
00097	12777717	-0.132105	0.199986	-9.826314	-0.006453	0.000303	-0.002913
00098	12777767	-0.128483	0.216157	-9.826817	-0.005422	0.000229	-0.001057
00099	12777817	-0.117826	0.210763	-9.807455	-0.005158	0.000841	-0.003651
00100	12777867	-0.146587	0.220496	-9.814986	-0.004484	-0.003213	-0.001461
00101	12777917	-0.141947	0.225521	-9.814043	-0.003715	0.005198	-0.000937
00102	12777967	-0.133760	0.210513	-9.826306	0.000928	0.007018	-0.002190
00103	12778017	-0.131200	0.206910	-9.825362	-0.008221	0.001955	0.000242
00104	12778067	-0.155937	0.240489	-9.827882	-0.005338	0.001779	-0.000695
00105	12778117	-0.132320	0.228735	-9.814339	-0.005003	0.000202	-0.001572
00106	12778167	-0.122956	0.232640	-9.816544	-0.002736	0.003503	-0.001401
00107	12778217	-0.134240	0.220475	-9.817200	-0.004018	0.004675	-0.000809
00108	12778267	-0.134923	0.234646	-9.818161	-0.003243	0.001007	-0.003400
00109	12778317	-0.136096	0.225445	-9.815516	-0.007568	0.000219	-0.001690
00110	12778367	-0.131382	0.232571	-9.802360	-0.004931	0.003011	-0.000722
00111	12778417	-0.145003	0.229358	-9.806132	-0.004320	-0.000207	-0.001637
00112	12778467	-0.152957	0.220976	-9.807285	-0.006013	0.001730	-0.002965
00113	12778517	-0.127802	0.221663	-9.794218	-0.006181	0.001217	0.000937
00114	12778567	-0.139808	0.218555	-9.806870	-0.004642	-0.001115	-0.001127
00115	12778617	-0.144723	0.230639	-9.816915	0.000083	-0.001007	-0.001881
00116	12778667	-0.136787	0.222735	-9.830849	-0.004703	0.003918	-0.002127
00117	12778717	-0.142228	0.219408	-9.822200	-0.003151	0.005000	-0.007413
00118	12778767	-0.132969	0.222562	-9.815055	-0.004070	-0.000074	-0.001895
00119	12778817	-0.158928	0.230105	-9.817321	-0.005391	0.001355	-0.001240
00120	12778867	-0.140751	0.229977	-9.820285	-0.006929	0.004490	-0.001989
00121	12778917	-0.134005	0.234225	-9.803788	-0.004446	0.001857	-0.001466
00122	12778967	-0.146896	0.216274	-9.805398	-0.004794	0.002822	-0.000274
00123	12779017	-0.142096	0.231131	-9.803260	-0.008429	0.002234	-0.003314
00124	12779067	-0.113684	0.203333	-9.814196	-0.005086	-0.001122	0.000088
00125	12779117	-0.135143	0.206960	-9.806410	-0.004848	0.000364	-0.002212
00126	12779167	-0.128249	0.228637	-9.813405	-0.000198	0.000867	-0.002125
00127	12779217	-0.149151	0.212019	-9.787653	-0.004490	-0.000620	0.000798
00128	12779267	-0.140820	0.228271	-9.826756	-0.003014	-0.000829	-0.000488
00129	12779317	-0.143889	0.232987	-9.822432	-0.005218	0.004170	-0.000875
00130	12779367	-0.133848	0.222156	-9.825840	-0.000925	0.000527	-0.003023
00131	12779417	-0.120297	0.208477	-9.813195	-0.004777	0.003471	0.001042
00132	12779467	-0.125468	0.214728	-9.809336	-0.003489	0.002071	0.000133
00133	12779517	-0.136347	0.212473	-9.814315	-0.002624	0.001591	-0.003590
00134	12779567	-0.151894	0.228697	-9.799380	-0.004647	0.002341	0.000173
00135	12779617	-0.134337	0.217428	-9.807616	-0.004136	0.001121	-0.002273
00136	12779667	-0.133268	0.224517	-9.801635	-0.005899	0.001185	-0.001755
00137	12779717	-0.143083	0.219864	-9.789598	-0.002507	-0.000048	-0.003213
00138	12779767	-0.121348	0.214032	-9.820624	-0.006969	0.001617	-0.001683
00139	12779817	-0.124114	0.201875	-9.812695	-0.000530	0.000180	-0.002608
00140	12779867	-0.153369	0.242604	-9.825263	-0.003046	0.000808	-0.003873
00141	12779917	-0.128548	0.224713	-9.811722	-0.005647	-0.002791	-0.001904
00142	12779967	-0.142055	0.255841	-9.811423	-0.004475	0.003744	-0.004916
00143	12780017	-0.147871	0.228289	-9.811382	-0.004973	-0.001480	0.002398
00144	12780067	-0.148264	0.225449	-9.812577	-0.004423	0.000300	-0.000413
00145	12780117	-0.147814	0.214551	-9.808507	-0.008023	0.000653	-0.001909
00146	12780167	-0.130367	0.221706	-9.804763	-0.004723	-0.000452	-0.001223
00147	12780217	-0.126679	0.215665	-9.806700	-0.006649	-0.000355	-0.002079
00148	12780267	-0.146413	0.220418	-9.827927	-0.003474	-0.000753	-0.001960
00149	12780317	-0.141313	0.221286	-9.807827	-0.000792	-0.000310	0.000889
00150	12780367	-0.138255	0.221773	-9.837319	-0.000226	0.001886	-0.001282
00151	12780417	-0.130777	0.212189	-9.833997	-0.004493	0.000999	-0.004160
00152	12780467	-0.146005	0.225632	-9.823136	-0.004249	-0.000077	0.002214
00153	12780517	-0.151370	0.229393	-9.815435	-0.000812	0.000655	0.002268
00154	12780567	-0.141346	0.224497	-9.840899	-0.004420	0.000776	-0.004610
00155	12780617	-0.133683	0.214146	-9.801628	-0.007433	-0.000988	-0.003105
00156	12780667	-0.142272	0.219224	-9.808051	-0.005540	0.000922	-0.001916
00157	12780717	-0.147790	0.237011	-9.812111	-0.004196	0.004074	-0.003379
00158	12780767	-0.162438	0.242836	-9.817303	-0.002180	0.001981	-0.002783
00159	12780817	-0.221720	0.194755	-9.759953	-0.002857	0.001164	-0.001816
00160	12780867	-0.103517	0.213228	-9.848505	-0.005139	0.002578	-0.001269
00161	12780917	-0.103594	0.205778	-9.794351	-0.003578	-0.001626	-0.003409
00162	12780967	-0.118850	0.228153	-9.858736	-0.005860	0.002881	-0.003189
00163	12781017	-0.156332	0.244913	-9.825727	-0.000987	-0.003123	0.001995
00164	12781067	-0.146470	0.221234	-9.816903	-0.004295	0.000239	-0.000159
00165	12781117	-0.126265	0.232041	-9.821801	-0.005471	0.003223	0.001428
00166	12781167	-0.150745	0.237169	-9.811845	-0.000901	0.002139	0.000070
00167	12781217	-0.145592	0.214948	-9.829130	-0.002477	0.000938	-0.006314
00168	12781267	-0.123400	0.212255	-9.827321	-0.006054	0.001209	-0.000793
00169	12781317	-0.147554	0.203746	-9.802506	-0.007206	-0.000041	-0.001881
00170	12781367	-0.150885	0.228328	-9.798668	-0.007892	0.001654	-0.002710
00171	12781417	-0.130038	0.216245	-9.807404	-0.001575	0.001021	-0.002857
00172	12781467	-0.143369	0.238660	-9.817878	-0.005500	-0.000335	-0.001664
00173	12781517	-0.147536	0.217123	-9.830560	-0.002630	0.002105	-0.000281
00174	12781567	-0.153357	0.215486	-9.817586	-0.005026	-0.000904	0.000063
00175	12781617	-0.126841	0.221013	-9.827782	-0.006321	0.001260	-0.003097
00176	12781667	-0.150916	0.230639	-9.817367	-0.003390	-0.000066	-0.000193
00177	12781717	-0.127523	0.233773	-9.829943	-0.004790	0.000318	-0.003874
00178	12781767	-0.134039	0.223623	-9.794918	-0.003941	-0.000118	-0.004201
00179	12781817	-0.135351	0.225902	-9.801383	-0.004622	0.001264	-0.001787
00180	12781867	-0.138859	0.243180	-9.816468	-0.006838	0.002868	-0.001419
00181	12781917	-0.164214	0.242929	-9.805309	-0.004619	0.001395	-0.001525
00182	12781967	-0.136793	0.220662	-9.799451	-0.007059	0.000676	0.001036
00183	12782017	-0.127501	0.231344	-9.823948	-0.006707	0.000481	-0.002652
00184	12782067	-0.143089	0.221863	-9.824105	-0.004257	0.000948	-0.001244
00185	12782117	-0.130175	0.229864	-9.823931	-0.003492	-0.002010	-0.000851
00186	12782167	-0.134795	0.226698	-9.827504	-0.003821	0.000075	-0.004458
00187	12782217	-0.144674	0.239929	-9.797260	-0.003440	0.001641	-0.000408
00188	12782267	-0.144158	0.232675	-9.823384	-0.002358	0.001825	0.000133
00189	12782317	-0.131351	0.228090	-9.818892	-0.004582	-0.001226	-0.003820
00190	12782367	-0.144257	0.235850	-9.825305	-0.004836	-0.001068	-0.002376
00191	12782417	-0.148512	0.210521	-9.835822	-0.001939	0.003437	-0.002072
00192	12782467	-0.139186	0.225306	-9.813346	-0.004138	-0.000825	-0.000744
00193	12782517	-0.134765	0.217866	-9.816718	-0.007083	-0.001748	-0.000227
00194	12782567	-0.129445	0.216649	-9.814831	-0.004555	0.004593	0.000378
00195	12782617	-0.153207	0.228410	-9.807043	-0.006102	0.001752	-0.002165
00196	12782667	-0.124237	0.206445	-9.826839	-0.002137	0.002626	-0.002304
00197	12782717	-0.134056	0.213626	-9.806659	-0.005349	-0.000144	-0.002883
00198	12782767	-0.128406	0.224599	-9.818195	-0.004167	-0.000154	-0.004429
00199	12782817	-0.120687	0.217077	-9.821347	-0.004755	0.001418	-0.003164
00200	12782867	-0.141336	0.209427	-9.819805	-0.003377	-0.002920	-0.004186
00201	12782917	-0.147061	0.229087	-9.807318	-0.001294	0.002650	0.001546
00202	12782967	-0.144158	0.221576	-9.805648	-0.004955	0.000708	-0.001626
00203	12783017	-0.132837	0.193695	-9.802586	-0.006408	0.002200	-0.002515
00204	12783067	-0.134448	0.209990	-9.802098	-0.003351	0.002606	-0.000151
00205	12783117	-0.152967	0.225490	-9.803447	-0.005743	0.002567	-0.000685
00206	12783167	-0.121973	0.226885	-9.794021	-0.004885	-0.002483	-0.000592
00207	12783217	-0.119897	0.210027	-9.812474	-0.001551	0.002252	-0.002302
00208	12783267	-0.131080	0.222866	-9.799244	-0.005275	0.002797	-0.002900
00209	12783317	-0.138455	0.219243	-9.836116	-0.005709	0.001179	-0.002937
00210	12783367	-0.156108	0.231906	-9.820933	-0.005250	-0.000110	-0.003525
00211	12783417	-0.128997	0.221417	-9.816753	-0.003809	0.003822	-0.003827
00212	12783467	-0.139863	0.206833	-9.814533	-0.005278	0.000864	-0.002556
00213	12783517	-0.140305	0.225104	-9.817897	-0.004882	0.000316	-0.003295
00214	12783567	-0.136860	0.234551	-9.814079	-0.002929	0.002354	-0.003999
00215	12783617	-0.157482	0.246961	-9.818533	-0.004212	0.002527	-0.001460
00216	12783667	-0.124957	0.220858	-9.793043	-0.004136	0.000238	-0.002439
00217	12783717	-0.142058	0.236489	-9.831543	-0.005555	0.000895	0.001835
00218	12783767	-0.124616	0.239322	-9.816536	-0.005137	-0.001748	-0.002059
00219	12783817	-0.138418	0.236411	-9.806636	-0.006408	0.001004	-0.002679
00220	12783867	-0.123089	0.197987	-9.817017	-0.003481	0.000671	-0.000388
00221	12783917	-0.115601	0.227247	-9.798603	-0.005055	0.003930	-0.002160
00222	12783967	-0.129232	0.205782	-9.813153	-0.006932	-0.002326	0.001372
00223	12784017	-0.143159	0.225937	-9.813087	-0.002582	0.002921	0.001292
00224	12784067	-0.135992	0.231720	-9.821988	-0.007269	0.004511	0.001603
00225	12784117	-0.139315	0.235000	-9.817176	-0.002310	-0.000657	0.001206
00226	12784167	-0.129455	0.210991	-9.798531	-0.005248	0.004059	-0.001388
00227	12784217	-0.161139	0.239365	-9.832891	-0.003726	0.000503	0.000164
00228	12784267	-0.128096	0.232625	-9.799012	-0.005069	0.001514	-0.001244
00229	12784317	-0.154359	0.239552	-9.799847	-0.003147	0.003256	-0.004084
00230	12784367	-0.147140	0.226243	-9.803240	-0.005033	-0.000876	-0.001957
00231	12784417	-0.143000	0.218530	-9.803736	-0.008518	-0.000004	-0.002868
00232	12784467	-0.121809	0.218788	-9.825886	-0.003263	0.001002	0.000478
00233	12784517	-0.123749	0.222134	-9.824206	-0.005271	0.001672	-0.001079
00234	12784567	-0.144137	0.218751	-9.800131	-0.001989	0.001148	-0.000962
00235	12784617	-0.143848	0.225188	-9.822664	-0.006702	0.000454	-0.000696
00236	12784667	-0.135786	0.217105	-9.812643	-0.004983	-0.001456	-0.000905
00237	12784717	-0.128004	0.220158	-9.809802	-0.003983	-0.001431	0.001211
00238	12784767	-0.151929	0.238881	-9.817112	-0.002392	0.000723	-0.000387
00239	12784817	-0.130052	0.217522	-9.812186	-0.002213	0.000948	-0.001735
00240	12784867	-0.118736	0.213282	-9.811042	-0.001063	0.003098	-0.002974
00241	12784917	-0.130317	0.233418	-9.803324	-0.007305	0.000244	-0.002235
00242	12784967	-0.131422	0.233512	-9.817704	-0.004121	-0.000211	-0.000031
00243	12785017	-0.133930	0.229226	-9.806182	-0.004115	0.002593	-0.001367
00244	12785067	-0.133236	0.226909	-9.808346	-0.002168	0.002760	0.000104
00245	12785117	-0.135958	0.222464	-9.813123	-0.002333	0.001886	-0.001305
00246	12785167	-0.144156	0.229667	-9.821941	-0.005572	0.000447	0.002316
00247	12785217	-0.125606	0.211041	-9.816769	-0.004163	0.002310	0.001582
00248	12785267	-0.141429	0.224054	-9.808774	-0.004404	0.004488	-0.004462
00249	12785317	-0.145020	0.234421	-9.816911	-0.002371	-0.000661	0.001468
00250	12785367	-0.128603	0.238316	-9.832817	-0.005965	0.004532	-0.001061
00251	12785417	-0.135478	0.232484	-9.802341	-0.002877	0.002909	0.000171
00252	12785467	-0.144284	0.235355	-9.806611	-0.003107	0.004192	-0.000778
00253	12785517	-0.129373	0.224632	-9.807402	-0.005052	0.001770	-0.002650
00254	12785567	-0.141753	0.227016	-9.786256	-0.004379	-0.001249	-0.000520
00255	12785617	-0.140836	0.201803	-9.811175	-0.005566	-0.001369	-0.001991
00256	12785667	-0.135176	0.196182	-9.815515	-0.005312	0.001425	0.004688
00257	12785717	-0.136230	0.213451	-9.809523	-0.003917	-0.002222	-0.005429
00258	12785767	-0.127787	0.225977	-9.808605	-0.001439	-0.001132	0.000083
00259	12785817	-0.161728	0.256262	-9.811326	-0.004075	-0.001599	-0.000487
00260	12785867	-0.128397	0.231785	-9.825388	-0.003613	0.001662	-0.003325
00261	12785917	-0.141414	0.214322	-9.810698	-0.005226	0.001056	-0.002872
00262	12785967	-0.158282	0.224642	-9.801256	-0.004316	0.000917	-0.000124
00263	12786017	-0.142212	0.219872	-9.805898	-0.003803	0.000826	-0.000126
00264	12786067	-0.147364	0.221066	-9.818574	-0.005651	0.001667	-0.001112
00265	12786117	-0.131630	0.201856	-9.813136	-0.002772	0.003656	0.000014
00266	12786167	-0.125846	0.212892	-9.827067	-0.002539	0.000397	0.000636
00267	12786217	-0.129850	0.241693	-9.810759	-0.003068	0.000706	-0.002853
00268	12786267	-0.138565	0.230614	-9.807839	-0.001810	0.000342	-0.002406
00269	12786317	-0.142447	0.214541	-9.793429	-0.005383	0.002254	-0.001363
00270	12786367	-0.130798	0.211015	-9.820815	-0.001881	0.001434	-0.004136
00271	12786417	-0.127832	0.213863	-9.834734	-0.002740	0.004718	-0.001585
00272	12786467	-0.142143	0.221487	-9.815958	-0.004125	0.002753	-0.002389
00273	12786517	-0.133019	0.230426	-9.816010	-0.006060	0.001497	-0.000274
00274	12786567	-0.155998	0.236065	-9.816861	-0.005492	-0.001528	-0.000546
00275	12786617	-0.119442	0.199754	-9.805533	-0.002311	-0.001860	-0.000340
00276	12786667	-0.128466	0.226892	-9.807164	-0.010115	0.001132	-0.001106
00277	12786717	-0.143204	0.231390	-9.814044	-0.001944	0.003431	-0.006012
00278	12786767	-0.136790	0.239425	-9.826302	-0.001362	0.003513	-0.000659
00279	12786817	-0.130072	0.223806	-9.804762	-0.003193	0.003738	-0.002965
00280	12786867	-0.133332	0.206149	-9.791560	-0.006485	0.000712	-0.000343
00281	12786917	-0.125398	0.222449	-9.823713	-0.001153	0.005268	0.001009
00282	12786967	-0.146423	0.212072	-9.819775	-0.007263	-0.000878	0.001478
00283	12787017	-0.130984	0.225978	-9.823690	-0.003291	0.001998	0.000262
00284	12787067	-0.136420	0.224622	-9.826775	-0.006518	0.002879	0.001079
00285	12787117	-0.139179	0.236088	-9.816218	-0.007726	0.002664	-0.000683
00286	12787167	-0.152330	0.217573	-9.813515	-0.005425	0.003440	-0.002508
00287	12787217	-0.149285	0.241449	-9.796996	-0.009286	-0.002119	-0.003392
00288	12787267	-0.137708	0.219534	-9.804482	-0.006856	0.001355	-0.000051
00289	12787317	-0.139318	0.225323	-9.820292	-0.001941	0.002802	0.001512
00290	12787367	-0.149374	0.229049	-9.816173	-0.006543	0.003590	-0.000359
00291	12787417	-0.141053	0.222308	-9.805909	-0.003805	0.001756	-0.003547
00292	12787467	-0.154073	0.213702	-9.795294	-0.004165	0.002047	-0.002167
00293	12787517	-0.135727	0.216193	-9.807364	-0.002470	0.002369	0.001547
00294	12787567	-0.131957	0.238497	-9.815304	-0.006487	0.001581	-0.002743
00295	12787617	-0.156218	0.244358	-9.815902	-0.005671	0.002541	0.000949
00296	12787667	-0.129774	0.219632	-9.807158	-0.004839	0.001293	-0.000731
00297	12787717	-0.146113	0.235698	-9.816671	-0.003541	0.002606	-0.001843
00298	12787767	-0.128111	0.217822	-9.810284	-0.004679	0.000297	0.000447
00299	12787817	-0.157155	0.235225	-9.808939	-0.004487	0.001104	-0.001016
00300	12787867	-0.149606	0.223333	-9.815451	-0.004597	-0.000314	0.000159
00301	12787917	-0.125428	0.214395	-9.813412	-0.007506	0.003468	-0.002313
00302	12787967	-0.141546	0.222657	-9.800868	-0.003643	0.001667	-0.002428
00303	12788017	-0.133649	0.221166	-9.815766	-0.004004	-0.002084	-0.001521
00304	12788067	-0.147326	0.216245	-9.814736	-0.004626	0.001621	0.000586
00305	12788117	-0.119547	0.198410	-9.820872	-0.005577	-0.002181	-0.004401
00306	12788167	-0.139916	0.230857	-9.824846	-0.002375	0.000073	-0.001220
00307	12788217	-0.160725	0.226989	-9.797415	-0.006077	-0.000022	-0.000764
00308	12788267	-0.133202	0.221118	-9.796117	-0.006577	0.001587	-0.000467
00309	12788317	-0.118682	0.204046	-9.812488	0.000612	0.001938	0.001372
00310	12788367	-0.139833	0.218338	-9.811427	-0.002045	0.001663	-0.001536
00311	12788417	-0.144981	0.218473	-9.808042	-0.003455	0.004830	-0.003276
00312	12788467	-0.120452	0.224049	-9.823024	-0.004850	0.002715	-0.000081
00313	12788517	-0.146459	0.214655	-9.810667	-0.002025	-0.000954	-0.002578
00314	12788567	-0.158592	0.227860	-9.797425	-0.003321	0.001471	-0.004320
00315	12788617	-0.157047	0.230930	-9.820919	-0.003821	0.000279	-0.001662
00316	12788667	-0.144895	0.233230	-9.819064	-0.008564	0.003314	-0.006475
00317	12788717	-0.144278	0.229600	-9.804931	-0.004894	0.000902	-0.001978
00318	12788767	-0.142948	0.229848	-9.819317	-0.004582	0.001130	-0.003425
00319	12788817	-0.144625	0.227162	-9.814756	-0.004729	0.000810	-0.000890
00320	12788867	-0.132784	0.221837	-9.803072	-0.003465	0.000354	0.000386
00321	12788917	-0.131213	0.224178	-9.825851	-0.004505	-0.001217	-0.000009
00322	12788967	-0.135684	0.224394	-9.829658	-0.004056	0.002558	-0.003802
00323	12789017	-0.137507	0.232057	-9.819583	-0.003102	0.001936	-0.001179
00324	12789067	-0.148860	0.215050	-9.797710	-0.007199	0.000662	-0.005179
00325	12789117	-0.132153	0.227241	-9.812422	-0.004692	-0.004110	-0.006974
00326	12789167	-0.144228	0.231659	-9.814515	-0.004241	0.001462	-0.002813
00327	12789217	-0.135856	0.228649	-9.814565	-0.003221	0.000481	-0.001794
00328	12789267	-0.134328	0.212662	-9.802104	-0.006693	0.000067	-0.001177
00329	12789317	-0.130897	0.226719	-9.809554	-0.002812	-0.000618	-0.005808
00330	12789367	-0.128279	0.216305	-9.822265	-0.002128	0.001107	-0.004329
00331	12789417	-0.136746	0.218265	-9.799455	-0.006279	0.001597	0.003189
00332	12789467	-0.140415	0.230257	-9.819813	-0.002249	0.000175	-0.000354
00333	12789517	-0.143185	0.236842	-9.796071	-0.004917	0.001681	0.000010
00334	12789567	-0.141641	0.216406	-9.812363	-0.000130	0.002156	0.000450
00335	12789617	-0.128823	0.221678	-9.814831	-0.005937	0.001495	-0.003003
00336	12789667	-0.114930	0.200275	-9.818022	-0.003592	0.001056	-0.001473
00337	12789717	-0.136780	0.228873	-9.811683	-0.003865	0.003564	-0.003923
00338	12789767	-0.136999	0.229222	-9.818625	-0.005011	0.001548	-0.001176
00339	12789817	-0.139360	0.229218	-9.794171	-0.001226	-0.000640	0.000660
00340	12789867	-0.126835	0.213206	-9.819631	-0.003149	0.001260	-0.001629
00341	12789917	-0.133065	0.226736	-9.820327	-0.007666	0.003569	-0.003524
00342	12789967	-0.129991	0.204572	-9.812667	-0.005823	0.005856	-0.004576
00343	12790017	-0.143009	0.233989	-9.814524	-0.005291	0.003554	-0.000166
00344	12790067	-0.142017	0.240910	-9.808303	-0.005655	0.001604	-0.002164
00345	12790117	-0.143527	0.231773	-9.820751	-0.004950	0.000519	-0.001112
00346	12790167	-0.141701	0.227115	-9.824118	-0.003231	0.000811	-0.001564
00347	12790217	-0.153127	0.222381	-9.817825	-0.004805	0.001404	0.001971
00348	12790267	-0.140203	0.225756	-9.800874	-0.000841	0.001307	0.000385
00349	12790317	-0.145222	0.231817	-9.810204	-0.003684	0.001156	-0.001080
00350	12790367	-0.139968	0.214224	-9.814058	-0.006920	0.001065	-0.002577
00351	12790417	-0.159241	0.217353	-9.828823	-0.001784	-0.000492	-0.003079
00352	12790467	-0.137472	0.219305	-9.812636	-0.001468	0.000036	0.001662
00353	12790517	-0.135816	0.219203	-9.804973	-0.001943	-0.000624	-0.003725
00354	12790567	-0.125351	0.217559	-9.802866	-0.006349	0.000300	-0.002136
00355	12790617	-0.142754	0.242723	-9.809491	-0.002794	-0.000403	0.001090
00356	12790667	-0.138526	0.233060	-9.808322	-0.005879	0.000693	-0.002967
00357	12790717	-0.129726	0.219366	-9.821296	-0.002747	0.000887	0.000226
00358	12790767	-0.151150	0.223059	-9.798904	-0.005150	0.001105	0.000815
00359	12790817	-0.128388	0.211807	-9.835445	-0.005716	0.001473	-0.002322
00360	12790867	-0.124479	0.197406	-9.804064	-0.006320	0.002399	-0.002801
00361	12790917	-0.133487	0.208595	-9.810013	-0.007081	0.001094	-0.001648
00362	12790967	-0.136577	0.224275	-9.820069	-0.004601	0.003751	-0.003341
00363	12791017	-0.137345	0.210783	-9.810000	-0.003284	-0.001712	-0.002829
00364	12791067	-0.182240	0.194717	-9.788199	-0.003464	0.002653	0.002617
00365	12791117	-0.107298	0.240186	-9.831721	-0.003492	0.001064	-0.001086
00366	12791167	-0.151756	0.240399	-9.807296	-0.002213	0.000853	-0.004291
00367	12791217	-0.141556	0.233111	-9.796316	-0.006340	-0.000994	-0.002590
00368	12791267	-0.136945	0.216323	-9.798491	-0.004049	0.000671	0.000263
00369	12791317	-0.143290	0.237071	-9.826025	-0.003409	0.001717	0.001937
00370	12791367	-0.120969	0.243608	-9.817749	-0.003546	0.002868	-0.001170
00371	12791417	-0.146277	0.237277	-9.799896	-0.001208	0.000846	-0.000221
00372	12791467	-0.132034	0.227974	-9.796126	-0.003991	0.004995	-0.000291
00373	12791517	-0.114368	0.210028	-9.817061	-0.004774	0.004303	-0.000679
00374	12791567	-0.148617	0.226120	-9.809219	-0.005427	0.002643	-0.000940
00375	12791617	-0.137577	0.231770	-9.811917	-0.005108	0.000615	-0.000374
00376	12791667	-0.145088	0.234798	-9.820989	-0.004266	0.004242	-0.002440
00377	12791717	-0.136203	0.240393	-9.821277	-0.004895	0.000811	-0.002103
00378	12791767	-0.141001	0.236365	-9.830115	-0.001468	0.002977	0.000270
00379	12791817	-0.119468	0.218184	-9.825187	-0.004563	-0.000574	-0.002053
00380	12791867	-0.129248	0.234063	-9.809568	-0.002322	0.001467	-0.003041
00381	12791917	-0.126368	0.223956	-9.838814	-0.003469	0.000292	-0.000187
00382	12791967	-0.152857	0.233924	-9.813036	-0.005997	0.001208	-0.004598
00383	12792017	-0.130271	0.207669	-9.808348	-0.009056	0.004961	-0.005150
00384	12792067	-0.146871	0.228066	-9.811146	-0.005194	-0.000808	-0.001888
00385	12792117	-0.141529	0.233688	-9.820048	-0.003842	0.003188	-0.001103
00386	12792167	-0.138859	0.228862	-9.814306	-0.003336	0.004493	0.000411
00387	12792217	-0.121693	0.201152	-9.818460	-0.003444	0.001450	-0.002074
00388	12792267	-0.160335	0.250390	-9.827379	-0.001602	0.000191	0.000001
00389	12792317	-0.134937	0.213365	-9.814082	-0.000145	0.002478	-0.001501
00390	12792367	-0.137474	0.227206	-9.815508	-0.003049	0.004362	-0.000489
00391	12792417	-0.134598	0.226151	-9.816485	-0.003351	0.000318	-0.004806
00392	12792467	-0.127081	0.227329	-9.806931	-0.007430	0.001089	-0.002482
00393	12792517	-0.139248	0.222689	-9.822683	-0.005475	0.002324	0.000951
00394	12792567	-0.131057	0.224090	-9.812670	0.000078	0.001312	-0.003398
00395	12792617	-0.127879	0.212492	-9.802376	-0.005028	0.000770	-0.004382
00396	12792667	-0.132968	0.212410	-9.819843	-0.002865	0.001400	-0.000542
00397	12792717	-0.145674	0.215818	-9.813787	-0.006018	0.002984	-0.002824
00398	12792767	-0.135776	0.217000	-9.809768	-0.004392	0.000177	-0.000121
00399	12792817	-0.137688	0.220273	-9.808794	-0.003326	0.000908	0.000138
00400	12792867	-0.135377	0.227444	-9.814799	-0.002521	0.000657	-0.002530
00401	12792917	-0.129200	0.232262	-9.814355	-0.001319	0.002232	-0.001336
00402	12792967	-0.138520	0.232705	-9.817424	-0.004713	-0.001029	-0.002917
00403	12793017	-0.130826	0.242600	-9.813157	-0.000393	-0.000883	-0.001744
00404	12793067	-0.135239	0.235010	-9.829904	-0.001618	-0.001779	-0.001803
00405	12793117	-0.118247	0.219566	-9.824473	-0.003757	0.001446	0.000618
00406	12793167	-0.137050	0.223981	-9.808805	-0.002237	0.001021	-0.000412
00407	12793217	-0.151110	0.222272	-9.814243	-0.002737	-0.001930	-0.004337
00408	12793267	-0.156910	0.230634	-9.801750	-0.004844	-0.000606	-0.001152
00409	12793317	-0.140737	0.203864	-9.819560	-0.005532	0.002129	0.002296
00410	12793367	-0.134801	0.215699	-9.811445	-0.006109	-0.001179	-0.001152
00411	12793417	-0.152036	0.239187	-9.819275	-0.003584	0.003166	0.000341
00412	12793467	-0.157972	0.227923	-9.816849	-0.003245	0.002126	-0.004888
00413	12793517	-0.147423	0.227806	-9.820964	-0.007773	0.002888	-0.002470
00414	12793567	-0.142082	0.228889	-9.803976	-0.002015	0.002193	0.001101
00415	12793617	-0.149180	0.216722	-9.815928	-0.004534	0.002725	-0.001328
00416	12793667	-0.152316	0.216685	-9.819982	-0.006098	0.002366	-0.004239
00417	12793717	-0.143303	0.231203	-9.811165	-0.005008	0.001356	-0.002933
00418	12793767	-0.139580	0.213941	-9.828917	-0.005651	0.001604	-0.002196
00419	12793817	-0.128822	0.212940	-9.804292	-0.003468	0.001650	0.000879
00420	12793867	-0.143290	0.226217	-9.810692	-0.007153	-0.000647	-0.001720
00421	12793917	-0.147845	0.233975	-9.802273	-0.002983	0.002592	0.000754
00422	12793967	-0.154574	0.242569	-9.805601	-0.007003	0.003869	-0.003010
00423	12794017	-0.146224	0.240129	-9.807076	-0.006685	0.002942	-0.002054
00424	12794067	-0.138545	0.225452	-9.824372	-0.003973	0.002183	-0.001556
00425	12794117	-0.140053	0.221736	-9.811895	-0.005008	0.002617	-0.001070
00426	12794167	-0.134733	0.221910	-9.822477	-0.003789	0.001317	-0.001143
00427	12794217	-0.152248	0.234485	-9.821190	-0.003707	0.002702	-0.003185
00428	12794267	-0.135029	0.231944	-9.807373	-0.005118	-0.000554	-0.004545
00429	12794317	-0.140372	0.228893	-9.814298	-0.004804	0.001235	-0.000625
00430	12794367	-0.129245	0.229661	-9.832568	-0.001539	0.002898	-0.003739
00431	12794417	-0.142395	0.226335	-9.805903	-0.006504	-0.000533	0.001869
00432	12794467	-0.154581	0.236363	-9.791942	-0.002521	-0.003704	-0.003319
00433	12794517	-0.137640	0.217702	-9.832528	-0.000633	-0.003277	0.000554
00434	12794567	-0.140609	0.213782	-9.806624	-0.003403	0.003290	-0.003378
00435	12794617	-0.148717	0.231039	-9.818808	-0.004913	0.000559	-0.000314
00436	12794667	-0.129029	0.218261	-9.806922	-0.005042	0.003685	-0.000939
00437	12794717	-0.133005	0.213941	-9.819121	-0.005412	0.001223	-0.000147
00438	12794767	-0.132516	0.203972	-9.802582	-0.008643	0.000332	0.000596
00439	12794817	-0.136275	0.224429	-9.828222	-0.005566	-0.002432	-0.002824
00440	12794867	-0.121932	0.228512	-9.792584	-0.005497	0.001901	-0.000302
00441	12794917	-0.153856	0.220688	-9.810391	-0.008573	0.002301	0.001828
00442	12794967	-0.147648	0.222522	-9.811618	-0.004693	0.003819	-0.001448
00443	12795017	-0.134987	0.219109	-9.824386	-0.003982	0.000639	0.001866
00444	12795067	-0.125238	0.224477	-9.819404	-0.007610	0.002894	-0.001351
00445	12795117	-0.146873	0.250657	-9.811871	-0.007546	-0.000433	-0.002746
00446	12795167	-0.136893	0.238397	-9.815752	-0.004672	0.001075	-0.001661
00447	12795217	-0.128880	0.224172	-9.817474	-0.007164	0.000098	0.001521
00448	12795267	-0.137245	0.210200	-9.815269	-0.006603	0.002068	-0.004271
00449	12795317	-0.138064	0.224523	-9.812635	-0.002821	-0.002154	-0.001132
00450	12795367	-0.127046	0.207036	-9.805010	-0.002737	0.001297	-0.003744
00451	12795417	-0.129475	0.229314	-9.805003	-0.004783	0.001555	-0.001749
00452	12795467	-0.156313	0.230175	-9.820210	-0.004049	0.001374	-0.002131
00453	12795517	-0.124777	0.205715	-9.822760	-0.004038	0.001251	-0.000120
00454	12795567	-0.127448	0.210939	-9.834011	-0.008005	-0.000150	-0.002515
00455	12795617	-0.134378	0.222179	-9.807861	-0.003448	0.000643	-0.002529
00456	12795667	-0.139710	0.234183	-9.817660	-0.006851	0.000168	0.000046
00457	12795717	-0.115277	0.224050	-9.821372	-0.004727	0.000590	-0.001758
00458	12795767	-0.132231	0.237762	-9.807149	-0.000346	-0.000434	-0.003272
00459	12795817	-0.128055	0.225062	-9.809328	-0.001390	-0.001872	-0.003316
00460	12795867	-0.139667	0.214151	-9.824594	-0.006307	0.001046	-0.001075
00461	12795917	-0.146815	0.218161	-9.809465	0.001031	0.005789	-0.001261
00462	12795967	-0.141859	0.213273	-9.824595	-0.000976	0.000069	-0.004841
00463	12796017	-0.124207	0.214419	-9.812696	-0.006734	0.003625	-0.000965
00464	12796067	-0.125351	0.214565	-9.816292	-0.003257	0.004876	-0.000582
00465	12796117	-0.128058	0.218477	-9.823709	-0.004075	0.001208	-0.003166
00466	12796167	-0.127553	0.226835	-9.810528	-0.004303	0.000073	-0.005025
00467	12796217	-0.154985	0.239751	-9.828368	-0.001976	0.000538	-0.002981
00468	12796267	-0.144338	0.229388	-9.824824	-0.001796	0.001863	-0.003452
00469	12796317	-0.155084	0.225360	-9.814220	-0.004718	0.001624	-0.000302
00470	12796367	-0.145240	0.227421	-9.814754	-0.004791	-0.002286	-0.000452
00471	12796417	-0.164556	0.238405	-9.804111	-0.004600	0.003050	0.000570
00472	12796467	-0.141589	0.214084	-9.811650	-0.003441	0.002616	0.000239
00473	12796517	-0.136471	0.221888	-9.803534	-0.005388	0.002513	-0.001840
00474	12796567	-0.127733	0.226485	-9.806693	-0.003465	0.002354	0.000719
00475	12796617	-0.127260	0.226565	-9.815088	-0.000250	0.000600	-0.003847
00476	12796667	-0.134752	0.240881	-9.827751	-0.001564	-0.000196	-0.001123
00477	12796717	-0.135258	0.224826	-9.822707	-0.004815	0.000492	0.000871
00478	12796767	-0.136811	0.233312	-9.822228	-0.005066	0.001362	0.000079
00479	12796817	-0.150286	0.229620	-9.827905	-0.004184	0.001795	-0.000563
00480	12796867	-0.149663	0.225205	-9.813531	-0.003937	-0.000209	-0.003873
00481	12796917	-0.145783	0.215104	-9.831042	-0.006402	0.001976	-0.002415
00482	12796967	-0.145014	0.209786	-9.810201	-0.004039	-0.001112	-0.003461
00483	12797017	-0.137987	0.208439	-9.800400	-0.001452	0.003622	0.001327
00484	12797067	-0.135779	0.242088	-9.809295	-0.003266	0.001267	0.001067
00485	12797117	-0.129105	0.222018	-9.806204	-0.004745	0.001498	0.001070
00486	12797167	-0.141314	0.230414	-9.820284	-0.005741	0.002082	-0.003568
00487	12797217	-0.143188	0.211777	-9.831058	-0.004453	-0.001282	-0.004165
00488	12797267	-0.152156	0.230786	-9.796985	-0.002020	0.001127	-0.000057
00489	12797317	-0.145458	0.221576	-9.828657	-0.001661	-0.000092	0.000899
00490	12797367	-0.138137	0.223581	-9.836830	-0.006012	-0.002212	-0.000709
00491	12797417	-0.128591	0.217813	-9.810040	-0.005477	0.000026	-0.002335
00492	12797467	-0.132926	0.226568	-9.823199	-0.008214	0.000988	0.001499
00493	12797517	-0.145983	0.227060	-9.826015	-0.004178	0.001568	-0.000760
00494	12797567	-0.141570	0.233013	-9.792246	-0.005444	0.000190	0.000105
00495	12797617	-0.134757	0.216133	-9.813847	-0.005548	-0.000814	-0.000864
00496	12797667	-0.134181	0.207487	-9.811934	-0.002106	0.000466	-0.004324
00497	12797717	-0.136668	0.226468	-9.799459	-0.001822	0.000125	-0.000064
00498	12797767	-0.140196	0.232122	-9.825328	-0.005101	-0.001612	-0.000382
00499	12797817	-0.123962	0.226174	-9.812948	-0.003254	-0.000483	-0.001314
00500	12797867	-0.140211	0.240125	-9.821010	-0.006360	0.003590	-0.003751
00501	12797917	-0.155450	0.247750	-9.812069	0.000168	-0.000585	-0.003600
00502	12797967	-0.141534	0.229065	-9.822675	-0.007454	0.001224	0.000372
00503	12798017	-0.130876	0.222638	-9.828959	-0.007056	0.002615	-0.000681
00504	12798067	-0.146349	0.226974	-9.821696	-0.004164	-0.000978	-0.000034
00505	12798117	-0.141006	0.213189	-9.787688	-0.000848	0.002597	-0.000218
00506	12798167	-0.125468	0.222485	-9.808855	0.000127	0.004134	-0.000435
00507	12798217	-0.140497	0.217272	-9.811417	-0.007823	0.001109	-0.004242
00508	12798267	-0.143264	0.227071	-9.815003	-0.000665	-0.000139	0.000727
00509	12798317	-0.133103	0.221417	-9.806662	-0.003526	0.003133	-0.001293
00510	12798367	-0.148526	0.224872	-9.824802	-0.005186	0.003034	-0.001709
00511	12798417	-0.142706	0.231559	-9.820280	-0.004274	0.002598	-0.000975
00512	12798467	-0.138259	0.218891	-9.824608	-0.007837	0.001857	-0.001932
00513	12798517	-0.149605	0.225929	-9.817125	-0.003052	0.002296	-0.001909
00514	12798567	-0.147438	0.234522	-9.822172	-0.002511	-0.002793	-0.002193
00515	12798617	-0.138625	0.225557	-9.814070	-0.004064	0.001921	-0.003126
00516	12798667	-0.127725	0.226650	-9.813400	-0.004505	0.000818	-0.002107
00517	12798717	-0.139149	0.229727	-9.806397	-0.006093	0.003532	-0.001542
00518	12798767	-0.155827	0.228977	-9.816372	-0.004630	0.002751	-0.002060
00519	12798817	-0.147257	0.217959	-9.806593	-0.003587	-0.002266	-0.002797
00520	12798867	-0.127569	0.209466	-9.804530	-0.005350	-0.000741	0.001348
00521	12798917	-0.149694	0.229348	-9.802983	-0.007872	0.002787	-0.004648
00522	12798967	-0.140225	0.230167	-9.814301	-0.008299	0.000267	-0.002289
00523	12799017	-0.144646	0.243972	-9.802541	-0.002870	0.001989	0.002060
00524	12799067	-0.127947	0.226946	-9.821794	-0.003389	0.000974	0.000232
00525	12799117	-0.148115	0.229354	-9.792932	-0.003432	0.001390	0.000912
00526	12799167	-0.127274	0.231024	-9.821316	-0.003677	0.000470	-0.004770
00527	12799217	-0.147608	0.229570	-9.805157	-0.004631	-0.002471	-0.001130
00528	12799267	-0.129212	0.222913	-9.791826	-0.002342	0.004374	-0.000845
00529	12799317	-0.137794	0.211638	-9.806873	-0.003263	0.003102	-0.000108
00530	12799367	-0.133878	0.219181	-9.806891	-0.007595	0.002313	-0.002538
00531	12799417	-0.136107	0.228563	-9.814798	-0.000697	0.000829	0.000640
00532	12799467	-0.124799	0.204618	-9.821796	-0.007482	0.000702	-0.001521
00533	12799517	-0.151624	0.229971	-9.837726	-0.002860	0.004328	-0.003374
00534	12799567	-0.151659	0.244914	-9.800582	-0.005315	0.000063	-0.000534
00535	12799617	-0.123737	0.232513	-9.805274	-0.005404	0.002965	-0.000363
00536	12799667	-0.139948	0.231342	-9.809270	-0.002348	0.001376	-0.000121
00537	12799717	-0.133491	0.217089	-9.797557	-0.004763	-0.001282	-0.001319
00538	12799767	-0.146263	0.235147	-9.795095	-0.006036	0.001761	-0.000846
00539	12799817	-0.142840	0.213926	-9.816919	-0.005373	-0.000262	-0.001784
00540	12799867	-0.143413	0.229980	-9.810876	-0.003766	0.000343	-0.003836
00541	12799917	-0.144086	0.226770	-9.817295	-0.000071	-0.001673	0.003102
00542	12799967	-0.146208	0.211488	-9.818474	-0.006039	0.001696	-0.000839
00543	12800017	-0.124114	0.226270	-9.855502	-0.003506	-0.000750	-0.002075
00544	12800067	-0.139006	0.233791	-9.813004	-0.006546	-0.001442	-0.000916
00545	12800117	-0.163834	0.246163	-9.812646	-0.003009	0.002006	-0.000905
00546	12800167	-0.149895	0.214950	-9.804557	-0.003686	0.003994	-0.003842
00547	12800217	-0.135774	0.216692	-9.796958	-0.004441	-0.001472	-0.002591
00548	12800267	-0.127630	0.218397	-9.797718	-0.001494	0.000446	-0.003294
00549	12800317	-0.131493	0.206229	-9.808965	-0.003500	0.000260	-0.001142
00550	12800367	-0.138258	0.235668	-9.812771	-0.005391	0.000249	-0.004533
00551	12800417	-0.140382	0.222620	-9.810840	-0.007848	0.004704	0.002067
00552	12800467	-0.161992	0.234017	-9.801622	-0.004310	0.004893	-0.000276
00553	12800517	-0.138216	0.227186	-9.828816	-0.006485	0.002754	-0.000062
00554	12800567	-0.125182	0.245739	-9.841120	-0.004270	-0.001500	0.000163
00555	12800617	-0.143553	0.230912	-9.817056	-0.004885	0.004749	-0.001464
00556	12800667	-0.136933	0.214264	-9.824994	-0.004226	0.001118	0.000533
00557	12800717	-0.132386	0.225359	-9.808484	-0.001443	0.002137	0.000468
00558	12800767	-0.150757	0.233048	-9.825885	-0.003798	0.000739	-0.000013
00559	12800817	-0.143557	0.219223	-9.813215	-0.005334	0.000936	0.000279
00560	12800867	-0.151480	0.238396	-9.818698	-0.003972	0.002155	-0.001001
00561	12800917	-0.138531	0.215059	-9.796942	-0.005228	0.000520	0.001363
00562	12800967	-0.133260	0.217469	-9.813988	-0.004983	0.000682	-0.000557
00563	12801017	-0.131303	0.226091	-9.803218	-0.004452	0.000212	0.001106
00564	12801067	-0.141609	0.222523	-9.808438	-0.006655	0.003140	-0.000893
00565	12801117	-0.124309	0.224753	-9.809000	-0.000563	0.001534	-0.001206
00566	12801167	-0.138981	0.230061	-9.809895	-0.001734	-0.002171	-0.003532
00567	12801217	-0.137205	0.230072	-9.816129	-0.008366	-0.000601	-0.000684
00568	12801267	-0.143337	0.229185	-9.835027	0.000697	-0.001094	-0.002792
00569	12801317	-0.146486	0.223203	-9.810573	-0.005684	-0.002053	-0.007361
00570	12801367	-0.153332	0.234673	-9.796877	-0.002727	0.000975	-0.004601
00571	12801417	-0.134004	0.222480	-9.816149	-0.003295	-0.000327	-0.002809
00572	12801467	-0.127381	0.206639	-9.814737	-0.005253	-0.000066	-0.002260
00573	12801517	-0.134747	0.207484	-9.815900	-0.004231	0.003444	-0.000126
00574	12801567	-0.125676	0.221757	-9.808995	-0.005503	0.001060	-0.000589
00575	12801617	-0.138361	0.238151	-9.823318	-0.003669	0.004004	0.002404
00576	12801667	-0.133041	0.231721	-9.804885	-0.001960	-0.000978	-0.002496
00577	12801717	-0.148966	0.225382	-9.817505	-0.004698	0.001951	0.001596
00578	12801767	-0.137174	0.229314	-9.816852	-0.001938	0.001509	-0.001074
00579	12801817	-0.129564	0.215271	-9.824309	-0.004674	0.000814	-0.003412
00580	12801867	-0.127254	0.226024	-9.807793	-0.005852	-0.000436	-0.003318
00581	12801917	-0.139052	0.223805	-9.810602	-0.007836	0.000119	0.000730
00582	12801967	-0.120583	0.212730	-9.805415	-0.002982	0.002299	-0.001066
00583	12802017	-0.138523	0.213595	-9.789518	-0.002509	0.003634	0.001083
00584	12802067	-0.137433	0.224808	-9.801503	-0.003502	0.000451	-0.001429
00585	12802117	-0.125549	0.210625	-9.826011	-0.007379	-0.002525	-0.001180
00586	12802167	-0.131208	0.228143	-9.809684	-0.005130	0.003259	-0.003140
00587	12802217	-0.140476	0.240130	-9.810610	-0.005400	-0.000455	-0.001522
00588	12802267	-0.141101	0.228224	-9.823539	-0.008057	0.003087	0.001033
00589	12802317	-0.143861	0.228009	-9.810827	-0.006577	0.002559	-0.000635
00590	12802367	-0.143910	0.227119	-9.807708	-0.002514	0.001368	-0.002518
00591	12802417	-0.156525	0.238514	-9.815313	-0.003285	0.003713	-0.000127
00592	12802467	-0.130044	0.212636	-9.810170	-0.003512	0.002772	-0.000874
00593	12802517	-0.155408	0.219092	-9.811957	-0.005583	0.000477	-0.002064
00594	12802567	-0.142344	0.225554	-9.829525	-0.002056	0.000020	-0.001147
00595	12802617	-0.159389	0.233296	-9.800916	-0.003245	0.002357	-0.003280
00596	12802667	-0.144956	0.219294	-9.813445	-0.007547	-0.000239	-0.001998
00597	12802717	-0.154612	0.237307	-9.817964	-0.000717	0.001568	-0.000335
00598	12802767	-0.151428	0.227992	-9.829001	-0.007915	-0.001528	0.001170
00599	12802817	-0.123535	0.227807	-9.801821	-0.005002	-0.001902	-0.001343
00600	12802867	-0.131836	0.225668	-9.825023	-0.004015	0.002376	-0.001705
00601	12802917	-0.139122	0.236777	-9.823306	-0.005876	0.002734	-0.001088
00602	12802967	-0.132917	0.227539	-9.806085	-0.004426	0.003206	-0.002147
00603	12803017	-0.147029	0.227256	-9.797859	-0.003321	0.003038	-0.000837
00604	12803067	-0.143075	0.215527	-9.817772	-0.006859	-0.003839	-0.001763
00605	12803117	-0.156452	0.228696	-9.816506	-0.008211	0.002593	-0.001659
00606	12803167	-0.138881	0.223387	-9.807974	-0.002108	-0.001168	0.000642
00607	12803217	-0.141878	0.211789	-9.794537	-0.004470	-0.000310	-0.001206
00608	12803267	-0.134625	0.222288	-9.822371	-0.004058	0.002126	0.003517
00609	12803317	-0.151325	0.238389	-9.817498	-0.004862	0.000912	-0.001675
00610	12803367	-0.140492	0.218883	-9.837685	-0.003621	0.001191	-0.000719
00611	12803417	-0.146141	0.228681	-9.828787	-0.004841	0.002232	-0.001638
00612	12803467	-0.138699	0.216208	-9.811080	-0.006745	0.000849	0.001432
00613	12803517	-0.155043	0.233317	-9.827785	-0.004411	0.000756	-0.002448
00614	12803567	-0.145661	0.225937	-9.819201	-0.004991	0.001938	-0.001542
00615	12803617	-0.143218	0.230206	-9.831440	-0.007054	0.002515	-0.001791
00616	12803667	-0.143752	0.211657	-9.817526	-0.003183	0.004818	0.001960
00617	12803717	-0.141526	0.211172	-9.814663	-0.002681	-0.000311	-0.000186
00618	12803767	-0.141781	0.229784	-9.804604	-0.003879	0.000285	-0.000148
00619	12803817	-0.135584	0.214574	-9.818055	-0.002339	-0.001079	-0.001376
00620	12803867	-0.148470	0.233178	-9.803848	-0.003584	0.001834	-0.001840
00621	12803917	-0.154053	0.229836	-9.816047	-0.006238	0.002079	-0.000772
00622	12803967	-0.131268	0.229334	-9.809687	-0.005966	0.001141	-0.004879
00623	12804017	-0.128744	0.227688	-9.812585	-0.005855	-0.003276	-0.002245
00624	12804067	-0.138031	0.232137	-9.815166	-0.005037	-0.001579	0.000840
00625	12804117	-0.132920	0.219035	-9.825490	-0.003815	0.003088	-0.002375
00626	12804167	-0.147426	0.224637	-9.805052	-0.002914	0.000776	-0.004056
00627	12804217	-0.144805	0.222191	-9.805538	-0.004360	0.000110	-0.002840
00628	12804267	-0.135369	0.213378	-9.797195	-0.004124	0.003088	-0.000515
00629	12804317	-0.153540	0.220934	-9.814363	-0.001091	0.000206	0.001737
00630	12804367	-0.139878	0.228536	-9.804370	-0.001723	0.001639	-0.003252
00631	12804417	-0.146377	0.235584	-9.823031	-0.007635	0.004601	-0.003509
00632	12804467	-0.143565	0.235305	-9.827127	-0.005377	0.002866	-0.002690
00633	12804517	-0.134675	0.228000	-9.811352	-0.000474	-0.001270	-0.000519
00634	12804567	-0.137532	0.219011	-9.811087	-0.003143	0.003099	-0.003753
00635	12804617	-0.136771	0.234486	-9.809182	-0.006235	0.001688	-0.002635
00636	12804667	-0.135108	0.233501	-9.818773	-0.008068	-0.001216	-0.003698
00637	12804717	-0.143225	0.224644	-9.799320	-0.002068	0.000545	-0.001081
00638	12804767	-0.141880	0.223805	-9.790940	-0.000186	-0.002233	-0.000235
00639	12804817	-0.141846	0.229154	-9.824252	-0.004550	0.001270	-0.000494
00640	12804867	-0.144105	0.212431	-9.804346	-0.004619	0.005497	-0.001974
00641	12804917	-0.140894	0.225234	-9.807725	-0.001311	0.004305	0.002848
00642	12804967	-0.129055	0.242144	-9.809223	-0.007165	0.003329	0.001579
00643	12805017	-0.154778	0.241610	-9.810055	-0.006393	-0.000446	-0.004148
00644	12805067	-0.139947	0.234299	-9.807971	-0.003278	-0.001806	-0.001728
00645	12805117	-0.141206	0.238021	-9.817074	-0.003985	-0.003789	-0.002378
00646	12805167	-0.141146	0.236958	-9.813231	-0.000454	0.000986	-0.002392
00647	12805217	-0.145784	0.229603	-9.802665	-0.002544	0.003403	-0.002376
00648	12805267	-0.139307	0.210497	-9.813238	-0.005963	0.002343	-0.001831
00649	12805317	-0.141063	0.211675	-9.805562	-0.001661	0.000708	-0.002046
00650	12805367	-0.141004	0.217861	-9.817060	-0.003457	0.002968	-0.001544
00651	12805417	-0.146462	0.215345	-9.804819	-0.008487	-0.002701	0.000846
00652	12805467	-0.155697	0.227355	-9.825620	-0.006260	0.000431	-0.001708
00653	12805517	-0.136280	0.225822	-9.810625	-0.001670	-0.000970	-0.001471
00654	12805567	-0.141539	0.237193	-9.808922	-0.003809	0.006124	-0.002868
00655	12805617	-0.139123	0.230542	-9.821870	-0.003424	-0.001361	-0.003613
00656	12805667	-0.163837	0.242135	-9.832055	-0.007455	0.004453	0.001459
00657	12805717	-0.141261	0.223555	-9.813705	-0.004862	0.000007	0.000275
00658	12805767	-0.149542	0.212911	-9.823736	-0.005303	0.001577	-0.002763
00659	12805817	-0.142268	0.218074	-9.820418	-0.001889	0.000831	-0.001331
00660	12805867	-0.119492	0.226359	-9.825085	-0.004660	0.000692	0.000049
00661	12805917	-0.137155	0.213198	-9.815165	-0.007642	0.003761	-0.003099
00662	12805967	-0.146334	0.204501	-9.798818	-0.003385	-0.001257	0.000773
00663	12806017	-0.141470	0.225379	-9.809874	-0.005377	0.000064	-0.000015
00664	12806067	-0.138986	0.239534	-9.818034	-0.004699	0.000818	-0.000555
00665	12806117	-0.136760	0.220535	-9.799595	-0.004730	-0.001348	-0.002047
00666	12806167	-0.139561	0.224809	-9.807973	-0.001486	0.000090	-0.004671
00667	12806217	-0.132923	0.233612	-9.812558	-0.005365	0.003970	-0.000057
00668	12806267	-0.141944	0.222092	-9.800770	-0.003412	0.001350	-0.003123
00669	12806317	-0.133729	0.219879	-9.813742	-0.008182	0.002856	-0.000280
00670	12806367	-0.125590	0.220087	-9.815463	-0.000726	0.001729	0.000650
00671	12806417	-0.145055	0.219167	-9.823035	-0.006494	0.003042	-0.001309
00672	12806467	-0.147252	0.217057	-9.832619	-0.005133	-0.001905	-0.001821
00673	12806517	-0.138049	0.201948	-9.814681	-0.001027	-0.000119	-0.000705
00674	12806567	-0.139033	0.221158	-9.814680	-0.003146	-0.000032	-0.003545
00675	12806617	-0.137740	0.197937	-9.814200	-0.005244	0.001904	-0.000072
00676	12806667	-0.142609	0.224241	-9.819218	-0.001170	0.001592	0.000943
00677	12806717	-0.150328	0.224112	-9.794967	-0.006082	0.001086	-0.000937
00678	12806767	-0.152712	0.242160	-9.824203	-0.008844	0.002415	-0.003615
00679	12806817	-0.131787	0.217263	-9.811356	-0.006699	0.003395	-0.001532
00680	12806867	-0.150013	0.211095	-9.827087	-0.005616	0.000349	-0.000912
00681	12806917	-0.139455	0.220916	-9.812275	-0.005533	0.002068	0.001501
00682	12806967	-0.138183	0.216386	-9.812527	-0.003117	0.003161	-0.004590
00683	12807017	-0.153962	0.225910	-9.826584	-0.001854	0.000866	-0.001527
00684	12807067	-0.137275	0.223110	-9.816124	-0.004613	0.002843	-0.004393
00685	12807117	-0.153585	0.225637	-9.806219	-0.004665	0.001851	-0.001898
00686	12807167	-0.141289	0.224031	-9.820424	-0.001647	0.003783	0.001822
00687	12807217	-0.142709	0.215656	-9.829041	-0.004520	0.002142	-0.001001
00688	12807267	-0.153712	0.232800	-9.805977	-0.007112	0.000029	-0.003149
00689	12807317	-0.122435	0.213724	-9.820511	-0.007814	-0.000048	-0.003541
00690	12807367	-0.124422	0.234844	-9.813560	-0.003079	0.000168	-0.000690
00691	12807417	-0.146256	0.218338	-9.819436	-0.006677	0.001487	-0.003657
00692	12807467	-0.128221	0.216988	-9.813541	-0.002513	0.001272	-0.002968
00693	12807517	-0.121545	0.224778	-9.830582	-0.004356	0.001748	-0.005361
00694	12807567	-0.144048	0.218265	-9.828072	-0.003374	0.003520	-0.001188
00695	12807617	-0.140499	0.223946	-9.812519	-0.003333	0.001997	-0.003181
00696	12807667	-0.136426	0.216686	-9.829314	-0.003149	0.001325	-0.000944
00697	12807717	-0.131402	0.223610	-9.816873	-0.002393	0.001498	-0.003896
00698	12807767	-0.128359	0.219558	-9.823123	-0.004045	0.002506	-0.000200
00699	12807817	-0.145368	0.225151	-9.831664	-0.003660	0.001518	0.001848
00700	12807867	-0.135060	0.232962	-9.807272	-0.003422	0.003231	0.001472
00701	12807917	-0.129607	0.227588	-9.805855	-0.004593	0.001823	0.001724
00702	12807967	-0.142848	0.224045	-9.806509	-0.001618	0.003320	-0.003916
00703	12808017	-0.122946	0.222160	-9.810689	-0.009219	-0.003038	-0.000120
00704	12808067	-0.137727	0.233755	-9.816123	-0.002365	0.000892	-0.000596
00705	12808117	-0.136529	0.212879	-9.813726	-0.003721	0.001683	0.003387
00706	12808167	-0.159033	0.222932	-9.809785	-0.002084	0.001385	0.001460
00707	12808217	-0.126688	0.211524	-9.812823	-0.002844	0.003881	-0.001990
00708	12808267	-0.127176	0.228826	-9.819773	-0.006073	-0.000276	-0.001044
00709	12808317	-0.142527	0.233197	-9.822814	-0.006083	-0.001789	0.001101
00710	12808367	-0.143203	0.220263	-9.820649	-0.006240	0.001048	-0.001066
00711	12808417	-0.138228	0.214137	-9.815881	-0.005604	-0.001170	-0.001849
00712	12808467	-0.138846	0.220310	-9.807248	-0.002826	0.000872	-0.006297
00713	12808517	-0.137231	0.225048	-9.804149	-0.003044	-0.000896	-0.000092
00714	12808567	-0.159307	0.226003	-9.806190	-0.005300	0.002941	0.000130
00715	12808617	-0.143657	0.225188	-9.804117	-0.001860	0.001962	-0.003059
00716	12808667	-0.141187	0.210070	-9.821380	-0.002642	0.000563	0.000363
00717	12808717	-0.143315	0.202528	-9.812255	-0.001534	0.000545	-0.004254
00718	12808767	-0.144497	0.225116	-9.830713	-0.003253	-0.001451	-0.001179
00719	12808817	-0.154251	0.227865	-9.819637	-0.000859	0.003824	-0.001736
00720	12808867	-0.138816	0.202025	-9.818273	-0.004515	-0.001216	-0.003422
00721	12808917	-0.137036	0.216637	-9.817803	-0.000479	-0.000109	-0.000191
00722	12808967	-0.140490	0.221663	-9.814193	-0.005381	-0.000367	-0.005431
00723	12809017	-0.129966	0.204208	-9.801063	-0.001618	0.003382	-0.003950
00724	12809067	-0.140677	0.218729	-9.806758	-0.003963	0.001562	-0.003987
00725	12809117	-0.133591	0.218953	-9.798885	-0.008391	0.001969	-0.005288
00726	12809167	-0.126473	0.213922	-9.816181	-0.002303	0.001859	-0.001845
00727	12809217	-0.130275	0.227989	-9.814003	-0.007857	0.000668	0.000730
00728	12809267	-0.147050	0.221034	-9.844357	-0.004705	0.004075	-0.002208
00729	12809317	-0.144462	0.228136	-9.824237	-0.002775	0.003490	-0.003816
00730	12809367	-0.137585	0.229810	-9.820683	-0.003227	0.001710	-0.002961
00731	12809417	-0.134169	0.225013	-9.794568	-0.004494	0.001369	-0.001517
00732	12809467	-0.134320	0.226107	-9.817102	-0.007471	0.001279	-0.003239
00733	12809517	-0.138077	0.229370	-9.819477	-0.004779	0.002560	-0.000164
00734	12809567	-0.142824	0.208301	-9.814185	-0.003969	0.003254	0.001185
00735	12809617	-0.142466	0.217332	-9.838147	-0.007239	-0.003240	-0.004707
00736	12809667	-0.146949	0.231091	-9.820403	-0.003622	0.001554	0.001496
00737	12809717	-0.133732	0.229922	-9.807523	-0.004170	-0.001793	-0.002401
00738	12809767	-0.134816	0.223168	-9.831478	-0.003843	0.003824	-0.005096
00739	12809817	-0.135252	0.223496	-9.823810	-0.003881	-0.003010	-0.001638
00740	12809867	-0.144904	0.229188	-9.802912	-0.003131	-0.000329	-0.001816
00741	12809917	-0.128623	0.209768	-9.817847	-0.004277	-0.000222	0.001430
00742	12809967	-0.147298	0.237054	-9.812960	-0.007526	0.000034	-0.004270
00743	12810017	-0.149292	0.222182	-9.811749	-0.005198	0.000177	-0.002094
00744	12810067	-0.147945	0.225770	-9.813679	-0.002265	-0.000548	-0.003035
00745	12810117	-0.129273	0.213398	-9.806576	-0.005315	0.006410	-0.000233
00746	12810167	-0.148522	0.241601	-9.816551	-0.007810	0.001969	-0.003295
00747	12810217	-0.144844	0.219061	-9.826158	-0.001833	0.001876	-0.004370
00748	12810267	-0.137638	0.230474	-9.816844	-0.001109	0.000475	-0.002612
00749	12810317	-0.140350	0.222775	-9.828574	-0.003904	0.000911	-0.002736
00750	12810367	-0.145716	0.231224	-9.790919	-0.006291	0.000844	0.002047
00751	12810417	-0.149709	0.218183	-9.847214	-0.002763	0.001255	-0.001483
00752	12810467	-0.151916	0.204688	-9.772190	-0.004914	-0.001429	-0.000567
00753	12810517	-0.129325	0.226098	-9.844921	-0.005285	0.002176	-0.000995
00754	12810567	-0.152006	0.218341	-9.786093	-0.007323	0.000852	-0.000960
00755	12810617	-0.131771	0.216612	-9.822143	-0.002833	-0.000554	-0.000790
00756	12810667	-0.113873	0.199251	-9.787726	-0.003815	0.001209	0.000595
00757	12810717	-0.150415	0.222876	-9.824687	-0.002480	0.000060	-0.004696
00758	12810767	-0.129162	0.204525	-9.799390	-0.005989	-0.000028	-0.001965
00759	12810817	-0.162310	0.232298	-9.810247	-0.004812	-0.001653	0.000105
00760	12810867	-0.149875	0.217353	-9.819654	-0.004543	0.002099	0.000222
00761	12810917	-0.139897	0.219453	-9.826177	-0.004136	0.000294	-0.001037
00762	12810967	-0.134417	0.216248	-9.814941	-0.005328	0.000603	0.000471
00763	12811017	-0.128184	0.223132	-9.830551	-0.002814	0.002932	-0.001926
00764	12811067	-0.107238	0.214546	-9.815077	-0.006996	-0.000039	0.003099
00765	12811117	-0.139622	0.237028	-9.829778	-0.002158	0.000367	0.000593
00766	12811167	-0.149495	0.239345	-9.810313	-0.006334	-0.000066	0.000439
00767	12811217	-0.136954	0.220019	-9.819720	-0.001225	0.003354	0.000344
00768	12811267	-0.141414	0.221892	-9.814905	-0.003635	0.000856	0.001078
00769	12811317	-0.155719	0.225292	-9.817711	-0.004208	0.000589	0.000405
00770	12811367	-0.130318	0.212378	-9.820952	-0.003014	-0.000879	0.000298
00771	12811417	-0.132021	0.228366	-9.797219	-0.004476	0.002739	-0.004195
00772	12811467	-0.145818	0.216260	-9.822791	-0.005052	-0.000139	0.000503
00773	12811517	-0.155373	0.234402	-9.820837	-0.006184	-0.000940	-0.003666
00774	12811567	-0.156988	0.236283	-9.826572	-0.001339	0.000931	0.000338
00775	12811617	-0.147326	0.232987	-9.805296	-0.001942	0.000822	0.000212
00776	12811667	-0.148925	0.233857	-9.814392	-0.002410	0.001066	-0.002926
00777	12811717	-0.142255	0.218373	-9.817057	-0.006490	0.002669	-0.004127
00778	12811767	-0.146626	0.202962	-9.808644	-0.005386	0.001307	-0.000326
00779	12811817	-0.126765	0.208551	-9.798680	-0.005094	0.002413	0.000128
00780	12811867	-0.152440	0.221348	-9.808382	-0.003776	-0.001317	-0.003389
00781	12811917	-0.141163	0.220617	-9.808913	-0.005455	0.001301	-0.002696
00782	12811967	-0.149379	0.232945	-9.805037	-0.001165	0.004248	-0.004707
00783	12812017	-0.132907	0.227548	-9.811358	-0.001393	0.000177	-0.004093
00784	12812067	-0.138573	0.228164	-9.825711	-0.001941	-0.000704	-0.004161
00785	12812117	-0.143689	0.208967	-9.835984	0.000764	0.001930	-0.003542
00786	12812167	-0.142054	0.224681	-9.825933	-0.007412	0.000327	-0.005069
00787	12812217	-0.126965	0.213285	-9.816173	-0.004701	0.000569	-0.004245
00788	12812267	-0.144275	0.234277	-9.808665	-0.004207	-0.000773	-0.002741
00789	12812317	-0.144843	0.231855	-9.816333	-0.004906	0.001080	-0.004940
00790	12812367	-0.149957	0.229881	-9.783712	-0.005595	0.003049	0.000137
00791	12812417	-0.136305	0.232297	-9.795758	-0.003836	0.003278	0.002053
00792	12812467	-0.129657	0.216208	-9.807777	-0.007220	0.001663	-0.000384
00793	12812517	-0.122544	0.203664	-9.818590	-0.002500	0.000168	-0.000051
00794	12812567	-0.144817	0.226281	-9.812978	-0.004410	0.000443	-0.004943
00795	12812617	-0.120893	0.227132	-9.827232	-0.007241	0.001077	-0.002853
00796	12812667	-0.147204	0.235730	-9.827581	-0.003807	0.001011	-0.000554
00797	12812717	-0.147854	0.221609	-9.819908	-0.003813	-0.002027	-0.002142
00798	12812767	-0.126589	0.220316	-9.809710	-0.002357	0.002547	-0.003050
00799	12812817	-0.156923	0.229484	-9.832576	-0.002946	-0.001036	-0.000661
00800	12812867	-0.147147	0.217667	-9.794025	-0.001865	0.000406	0.001296
00801	12812917	-0.123732	0.211428	-9.799898	-0.004137	0.001130	-0.002095
00802	12812967	-0.129490	0.229025	-9.791964	-0.004441	0.001673	-0.003401
00803	12813017	-0.158771	0.212565	-9.812184	-0.003068	-0.002432	-0.002596
00804	12813067	-0.163547	0.234962	-9.802814	-0.006102	-0.000323	-0.001867
00805	12813117	-0.154531	0.218968	-9.808130	-0.002132	0.000586	-0.001137
00806	12813167	-0.137316	0.232849	-9.800309	-0.002506	0.000225	-0.002806
00807	12813217	-0.148098	0.244956	-9.823986	-0.004040	0.000003	-0.002030
00808	12813267	-0.142671	0.224890	-9.816103	-0.000903	-0.000938	-0.001501
00809	12813317	-0.124882	0.236117	-9.821465	-0.001273	-0.000466	-0.003649
00810	12813367	-0.140857	0.217122	-9.815869	-0.002609	0.000452	-0.001652
00811	12813417	-0.139290	0.220478	-9.804365	-0.001738	0.001301	-0.001615
00812	12813467	-0.147304	0.230387	-9.803617	-0.004013	-0.000674	-0.002552
00813	12813517	-0.143275	0.202982	-9.818487	-0.006116	-0.000034	-0.003053
00814	12813567	-0.143613	0.219303	-9.804593	-0.003687	-0.002987	-0.000961
00815	12813617	-0.146358	0.223847	-9.821352	-0.004690	0.001547	-0.000965
00816	12813667	-0.141356	0.223970	-9.824731	-0.004026	0.001749	-0.001353
00817	12813717	-0.144801	0.223605	-9.806505	-0.003874	-0.000125	-0.002000
00818	12813767	-0.153155	0.239250	-9.830917	-0.003512	0.001794	-0.000579
00819	12813817	-0.141805	0.216153	-9.843419	-0.003307	0.001509	0.001433
00820	12813867	-0.121967	0.224761	-9.803024	-0.004268	0.001325	-0.000999
00821	12813917	-0.133128	0.223160	-9.812313	-0.005537	-0.002855	0.001542
00822	12813967	-0.145772	0.212189	-9.806498	-0.004859	0.003833	-0.002398
00823	12814017	-0.143998	0.226177	-9.822323	-0.002486	0.001945	0.002074
00824	12814067	-0.146239	0.206942	-9.795225	-0.002459	0.003940	-0.000862
00825	12814117	-0.137572	0.216564	-9.801499	-0.006894	0.002474	-0.001887
00826	12814167	-0.139992	0.221496	-9.803411	-0.005133	0.002470	-0.002144
00827	12814217	-0.143300	0.197592	-9.811778	-0.003305	-0.000490	0.002544
00828	12814267	-0.136982	0.222400	-9.813020	-0.005092	-0.003212	-0.002270
00829	12814317	-0.150984	0.216264	-9.825882	-0.006103	0.002743	-0.000474
00830	12814367	-0.134948	0.216275	-9.813259	-0.005350	-0.001252	-0.005466
00831	12814417	-0.135920	0.230569	-9.811107	-0.002076	-0.002417	-0.001057
00832	12814467	-0.130377	0.231000	-9.816406	-0.001749	-0.001337	0.000773
00833	12814517	-0.133854	0.225248	-9.814948	-0.002493	-0.000062	0.000461
00834	12814567	-0.130321	0.213958	-9.820713	-0.001285	0.000027	-0.000857
00835	12814617	-0.137689	0.219940	-9.799589	-0.001358	0.000212	-0.002263
00836	12814667	-0.144193	0.213514	-9.812494	-0.004370	0.000484	-0.001097
00837	12814717	-0.161651	0.242878	-9.820798	-0.004849	0.000641	0.000955
00838	12814767	-0.123963	0.221853	-9.844717	-0.005118	-0.003210	-0.000704
00839	12814817	-0.128622	0.212480	-9.814009	-0.002640	0.002351	-0.003371
00840	12814867	-0.168431	0.231626	-9.806863	-0.003932	0.001913	-0.000774
00841	12814917	-0.129186	0.229952	-9.809941	-0.003604	-0.001471	-0.001272
00842	12814967	-0.136944	0.221381	-9.826195	-0.004110	0.003691	-0.000154
00843	12815017	-0.148055	0.238826	-9.815118	-0.004982	0.001600	-0.001538
00844	12815067	-0.141410	0.217045	-9.805079	-0.005044	0.000504	-0.002219
00845	12815117	-0.140810	0.232772	-9.806522	-0.009522	0.002717	-0.002165
00846	12815167	-0.140433	0.224490	-9.827618	-0.005616	-0.000638	-0.002705
00847	12815217	-0.136975	0.224251	-9.803191	-0.001039	0.001613	0.000849
00848	12815267	-0.147928	0.233462	-9.828293	-0.004747	-0.001816	-0.001751
00849	12815317	-0.150242	0.229701	-9.810547	-0.002682	0.004002	-0.000796
00850	12815367	-0.147539	0.220796	-9.813675	-0.001772	0.003301	-0.001957
00851	12815417	-0.142315	0.227785	-9.828324	-0.004810	0.000083	-0.004179
00852	12815467	-0.153328	0.218664	-9.816046	-0.003932	-0.002351	-0.002041
00853	12815517	-0.154511	0.225532	-9.820354	-0.001734	0.000307	0.001389
00854	12815567	-0.140766	0.233895	-9.819464	-0.008237	0.001413	-0.002430
00855	12815617	-0.128574	0.214084	-9.804188	-0.004198	-0.000671	0.001231
00856	12815667	-0.136887	0.210182	-9.825232	-0.002756	0.001161	0.001046
00857	12815717	-0.138750	0.218156	-9.818284	-0.005720	-0.001481	-0.002968
00858	12815767	-0.132986	0.206289	-9.807281	-0.004613	-0.001069	-0.002293
00859	12815817	-0.151955	0.224800	-9.797605	-0.004422	0.001196	-0.001638
00860	12815867	-0.117505	0.210669	-9.804725	-0.004885	0.000472	-0.002638
00861	12815917	-0.149535	0.233858	-9.814870	-0.004768	0.003058	-0.000992
00862	12815967	-0.138441	0.224113	-9.831937	-0.005514	0.002269	-0.001954
00863	12816017	-0.133311	0.230684	-9.825735	-0.003637	0.003792	-0.000314
00864	12816067	-0.146600	0.223166	-9.823512	-0.005220	-0.000915	0.000013
00865	12816117	-0.130992	0.213800	-9.821910	-0.005338	0.001020	0.001759
00866	12816167	-0.148286	0.229987	-9.824703	-0.004864	0.001989	-0.001698
00867	12816217	-0.149616	0.249283	-9.815111	-0.004709	0.000125	-0.000619
00868	12816267	-0.120954	0.223761	-9.806860	-0.007901	-0.000162	-0.001898
00869	12816317	-0.141073	0.209984	-9.799094	-0.004321	0.000106	0.001942
00870	12816367	-0.143930	0.217590	-9.816095	-0.004759	0.000673	-0.000396
00871	12816417	-0.157050	0.220066	-9.819860	-0.004161	0.001172	0.001468
00872	12816467	-0.145398	0.211663	-9.800259	-0.003337	0.001278	-0.001808
00873	12816517	-0.143972	0.226893	-9.817772	-0.004532	0.004542	-0.003773
00874	12816567	-0.147002	0.206162	-9.812961	-0.005135	-0.001693	-0.000627
00875	12816617	-0.131961	0.235661	-9.824781	-0.006466	0.002422	0.002569
00876	12816667	-0.136818	0.213522	-9.808935	-0.002442	0.001361	-0.000074
00877	12816717	-0.131044	0.226010	-9.793630	-0.006095	0.002583	-0.001565
00878	12816767	-0.139619	0.212604	-9.815160	-0.003666	0.000169	-0.002673
00879	12816817	-0.139582	0.222276	-9.803892	-0.005303	-0.000241	-0.000046
00880	12816867	-0.148027	0.232613	-9.806011	-0.006969	0.000433	-0.003910
00881	12816917	-0.143118	0.218278	-9.797161	-0.004951	-0.000395	-0.001135
00882	12816967	-0.163152	0.222384	-9.788911	-0.003660	0.002535	-0.000095
00883	12817017	-0.149490	0.225682	-9.808400	-0.002608	0.003581	0.000001
00884	12817067	-0.123042	0.212330	-9.825306	-0.002635	0.002161	-0.002574
00885	12817117	-0.151200	0.235929	-9.828044	-0.004601	0.001902	-0.000098
00886	12817167	-0.134081	0.216217	-9.834118	0.000861	0.000097	0.000419
00887	12817217	-0.126303	0.224190	-9.820019	-0.002779	0.003803	-0.002372
00888	12817267	-0.137464	0.230219	-9.809420	-0.006262	0.002809	-0.000925
00889	12817317	-0.130450	0.229332	-9.817842	-0.000937	0.001325	0.000335
00890	12817367	-0.165624	0.245326	-9.785793	-0.004697	0.002900	-0.000026
00891	12817417	-0.128600	0.221278	-9.809456	-0.007240	0.000107	-0.002409
00892	12817467	-0.146664	0.217492	-9.796181	-0.005983	0.001606	-0.006349
00893	12817517	-0.146580	0.229478	-9.822318	-0.003801	0.003947	-0.000922
00894	12817567	-0.138578	0.225020	-9.814201	-0.005023	0.001957	-0.001926
00895	12817617	-0.133748	0.219295	-9.813273	-0.002949	0.000221	0.000175
00896	12817667	-0.120050	0.219471	-9.832989	-0.007651	-0.001192	-0.002964
00897	12817717	-0.135176	0.224934	-9.820689	-0.006111	0.001200	0.001404
00898	12817767	-0.156976	0.241649	-9.831608	-0.005452	0.003532	-0.000149
00899	12817817	-0.137608	0.222895	-9.804619	-0.004111	0.003587	-0.001565
00900	12817867	-0.152984	0.238568	-9.805984	0.001439	0.004011	-0.001413
00901	12817917	-0.131568	0.218630	-9.814482	-0.002851	0.001962	-0.001577
00902	12817967	-0.132244	0.210070	-9.812320	-0.002910	-0.000397	-0.002840
00903	12818017	-0.146797	0.239871	-9.816801	-0.003643	0.000886	-0.001164
00904	12818067	-0.150214	0.227684	-9.818698	-0.001445	0.003087	-0.000964
00905	12818117	-0.145538	0.225342	-9.810333	-0.004739	0.001028	-0.001640
00906	12818167	-0.127608	0.223863	-9.811865	-0.003790	0.001565	0.000984
00907	12818217	-0.153139	0.231682	-9.820355	-0.008882	0.002599	-0.001937
00908	12818267	-0.125872	0.206977	-9.822170	-0.002372	0.002040	-0.000585
00909	12818317	-0.130650	0.228080	-9.826703	-0.003033	0.002699	-0.002697
00910	12818367	-0.139261	0.227129	-9.828102	-0.007296	-0.001153	-0.001806
00911	12818417	-0.152246	0.234868	-9.822520	-0.004140	0.000292	-0.003056
00912	12818467	-0.131234	0.218298	-9.795790	-0.000292	-0.000967	-0.001731
00913	12818517	-0.119581	0.223060	-9.802793	-0.001399	0.000633	-0.000341
00914	12818567	-0.128637	0.211026	-9.810893	-0.003400	0.000142	-0.002553
00915	12818617	-0.138748	0.234347	-9.822831	-0.004636	-0.002900	0.004040
00916	12818667	-0.138827	0.219991	-9.815400	-0.003348	-0.001495	0.000361
00917	12818717	-0.137073	0.224004	-9.826197	-0.005375	0.000817	-0.002509
00918	12818767	-0.134948	0.211735	-9.813018	-0.002989	-0.001844	-0.000475
00919	12818817	-0.136945	0.230131	-9.805345	-0.005926	0.004397	-0.000593
00920	12818867	-0.130834	0.228813	-9.809693	-0.005020	0.000924	-0.000422
00921	12818917	-0.131298	0.225264	-9.826459	-0.002295	0.001653	-0.001102
00922	12818967	-0.132479	0.229319	-9.812321	-0.005613	-0.000697	-0.002066
00923	12819017	-0.146121	0.226404	-9.819680	-0.004509	0.002968	-0.000831
00924	12819067	-0.137171	0.227567	-9.803183	-0.001687	0.003860	-0.000227
00925	12819117	-0.142652	0.217420	-9.799796	-0.006723	0.000348	0.001020
00926	12819167	-0.128247	0.216356	-9.816413	-0.003517	-0.001282	-0.002749
00927	12819217	-0.121689	0.201889	-9.811403	-0.005231	-0.000790	-0.002033
00928	12819267	-0.141982	0.234467	-9.814908	-0.006024	0.002296	-0.000063
00929	12819317	-0.146218	0.223084	-9.807932	-0.003432	0.000209	-0.001585
00930	12819367	-0.137291	0.242187	-9.823088	-0.003621	0.001012	-0.002415
00931	12819417	-0.134887	0.239921	-9.825488	-0.003853	0.000427	-0.001582
00932	12819467	-0.135278	0.220432	-9.836510	-0.005347	0.001147	-0.000232
00933	12819517	-0.126043	0.200006	-9.826962	-0.006291	-0.001454	0.000238
00934	12819567	-0.151201	0.227143	-9.813895	-0.003111	0.002351	0.000091
00935	12819617	-0.148510	0.225174	-9.822063	-0.002049	0.001079	0.001463
00936	12819667	-0.146803	0.236535	-9.820875	-0.001098	0.000027	-0.002041
00937	12819717	-0.141484	0.227847	-9.812028	-0.005887	0.001203	0.000574
00938	12819767	-0.149901	0.239030	-9.818219	-0.007673	0.001911	-0.000796
00939	12819817	-0.145510	0.209837	-9.821597	-0.004535	-0.000390	-0.001617
00940	12819867	-0.132138	0.221228	-9.810405	-0.004989	0.000094	0.000399
00941	12819917	-0.132168	0.227139	-9.829335	-0.004054	-0.001541	-0.002982
00942	12819967	-0.147556	0.215487	-9.822065	-0.003982	0.005467	-0.002308
00943	12820017	-0.142173	0.214218	-9.816817	-0.001893	0.002319	0.000362
00944	12820067	-0.141243	0.235284	-9.825699	-0.003265	0.001193	0.000234
00945	12820117	-0.137624	0.223263	-9.820437	-0.005893	-0.000853	0.000741
00946	12820167	-0.147235	0.228224	-9.818229	-0.002137	-0.000601	-0.003783
00947	12820217	-0.122668	0.228117	-9.809251	-0.003392	0.001992	-0.002235
00948	12820267	-0.131794	0.228887	-9.795068	-0.006312	0.002362	-0.000424
00949	12820317	-0.130299	0.222793	-9.805855	-0.002886	0.001099	-0.001628
00950	12820367	-0.134866	0.234286	-9.814710	-0.002857	-0.000738	0.000060
00951	12820417	-0.133345	0.221610	-9.804400	-0.005224	0.001482	0.000594
00952	12820467	-0.143205	0.209121	-9.802670	-0.003721	0.001149	-0.002076
00953	12820517	-0.137041	0.213667	-9.819963	-0.004274	-0.001603	-0.000578
00954	12820567	-0.137738	0.226892	-9.828591	-0.005357	0.002410	-0.001807
00955	12820617	-0.146392	0.231605	-9.823032	-0.003429	0.002384	0.000397
00956	12820667	-0.133876	0.219059	-9.827166	-0.000885	0.001720	-0.000604
00957	12820717	-0.138089	0.210212	-9.825942	-0.004611	0.000109	0.000710
00958	12820767	-0.141265	0.223203	-9.807719	-0.004046	-0.001564	0.001277
00959	12820817	-0.132022	0.214803	-9.812073	-0.005617	0.001466	-0.002646
00960	12820867	-0.146136	0.224515	-9.809608	-0.003291	0.004200	0.001048
00961	12820917	-0.139521	0.213598	-9.793825	-0.006119	0.001366	-0.000079
00962	12820967	-0.153780	0.227634	-9.820123	-0.001110	0.001486	-0.003136
00963	12821017	-0.148756	0.229562	-9.803614	-0.001328	-0.000384	0.000831
00964	12821067	-0.139478	0.228327	-9.834573	-0.002489	-0.000113	0.002273
00965	12821117	-0.140712	0.226754	-9.823301	-0.004411	-0.000048	0.002409
00966	12821167	-0.140208	0.237879	-9.823062	-0.001853	-0.003202	0.001071
00967	12821217	-0.146020	0.228278	-9.816325	-0.005906	-0.001535	0.000096
00968	12821267	-0.144213	0.216462	-9.819445	-0.006228	-0.001413	-0.000768
00969	12821317	-0.157054	0.232622	-9.800692	-0.006282	0.002560	0.000635
00970	12821367	-0.153843	0.218024	-9.822753	-0.002945	0.001808	-0.001877
00971	12821417	-0.147105	0.219916	-9.815594	-0.005212	-0.000363	-0.001946
00972	12821467	-0.143434	0.235499	-9.817293	-0.007262	0.002024	-0.000551
00973	12821517	-0.130912	0.204935	-9.817104	-0.003760	0.000074	-0.005347
00974	12821567	-0.139350	0.232081	-9.809407	-0.006920	0.004682	0.001382
00975	12821617	-0.119866	0.218249	-9.814299	-0.001381	0.001830	-0.004257
00976	12821667	-0.139887	0.220347	-9.822820	-0.004068	0.002406	0.000532
00977	12821717	-0.143322	0.221232	-9.819451	-0.006676	-0.001489	-0.001951
00978	12821767	-0.147628	0.230141	-9.815596	-0.004375	0.001915	0.000335
00979	12821817	-0.143293	0.232207	-9.825926	-0.002605	0.002328	-0.002484
00980	12821867	-0.134519	0.196634	-9.833626	-0.004712	0.001231	-0.001557
00981	12821917	-0.137667	0.209311	-9.813723	-0.002885	0.000168	0.001059
00982	12821967	-0.144516	0.239420	-9.815136	-0.005841	-0.001505	-0.001408
00983	12822017	-0.130936	0.214673	-9.808012	-0.000520	-0.001794	0.001395
00984	12822067	-0.134067	0.227355	-9.811354	-0.004655	0.002323	-0.002418
00985	12822117	-0.146077	0.224613	-9.827346	-0.004897	0.002068	-0.000367
00986	12822167	-0.136497	0.232102	-9.807742	-0.006396	0.000971	-0.001266
00987	12822217	-0.127429	0.217146	-9.827200	-0.007468	0.000338	-0.002359
00988	12822267	-0.134583	0.214242	-9.801035	-0.006599	0.005525	-0.000539
00989	12822317	-0.163768	0.238044	-9.804727	-0.005005	0.003743	-0.000352
00990	12822367	-0.125485	0.213090	-9.820735	-0.003228	0.002971	0.000399
00991	12822417	-0.134899	0.228807	-9.823329	0.000614	0.004812	-0.001296
00992	12822467	-0.127163	0.208501	-9.813776	-0.002800	0.003719	-0.000014
00993	12822517	-0.142682	0.226696	-9.818972	-0.006326	-0.000546	-0.002972
00994	12822567	-0.148194	0.219563	-9.829259	-0.001521	0.001583	0.000940
00995	12822617	-0.167309	0.236580	-9.803995	-0.005192	0.002451	0.000118
00996	12822667	-0.128163	0.230381	-9.824799	0.000574	-0.001164	-0.001556
00997	12822717	-0.139738	0.223425	-9.812517	-0.001336	0.001807	0.000170
00998	12822767	-0.133462	0.214374	-9.814468	-0.003137	0.001129	0.000715
00999	12822817	-0.130560	0.235416	-9.823835	-0.003827	0.001535	-0.002327
01000	12822867	-0.132746	0.216458	-9.812079	-0.004139	0.001874	-0.005819
01001	12822917	-0.133068	0.211186	-9.825252	-0.003048	0.003194	-0.002515
01002	12822967	-0.135341	0.224377	-9.826199	-0.000738	0.002140	-0.000602
01003	12823017	-0.127152	0.220232	-9.804914	-0.004228	0.000206	-0.000285
01004	12823067	-0.140510	0.228777	-9.814670	-0.004632	0.000743	-0.002204
01005	12823117	-0.129691	0.211521	-9.810888	-0.005555	-0.001366	0.000418
01006	12823167	-0.140502	0.227282	-9.812520	-0.004343	0.001523	-0.003448
01007	12823217	-0.136279	0.220610	-9.819251	-0.005447	0.002381	-0.000495
01008	12823267	-0.153879	0.237329	-9.806698	-0.006430	0.004236	0.000228
01009	12823317	-0.155954	0.224888	-9.812672	-0.000335	0.002501	-0.000951
01010	12823367	-0.142266	0.213446	-9.806756	-0.004683	0.001658	0.001876
01011	12823417	-0.130298	0.233037	-9.815926	-0.006734	0.000646	0.001967
01012	12823467	-0.149813	0.218174	-9.790902	-0.008360	0.001592	0.001245
01013	12823517	-0.144645	0.235485	-9.806271	-0.004294	0.002973	-0.004368
01014	12823567	-0.143727	0.215198	-9.800994	-0.002868	0.004449	-0.004464
01015	12823617	-0.158178	0.232882	-9.820813	-0.003805	0.001889	-0.002580
01016	12823667	-0.138775	0.228745	-9.797185	-0.004566	0.000485	-0.003964
01017	12823717	-0.138027	0.228298	-9.829785	-0.001680	0.001311	-0.003072
01018	12823767	-0.131906	0.211899	-9.818305	-0.006732	0.003356	-0.001352
01019	12823817	-0.135065	0.209373	-9.812300	-0.006095	0.000396	-0.001625
01020	12823867	-0.141495	0.206851	-9.810355	-0.004777	-0.000067	-0.003392
01021	12823917	-0.132337	0.223365	-9.814959	-0.003032	0.002773	-0.001620
01022	12823967	-0.148026	0.240365	-9.790674	-0.003038	-0.001164	-0.001318
01023	12824017	-0.140640	0.227385	-9.821383	-0.000908	0.001200	-0.001825
01024	12824067	-0.151912	0.221345	-9.819403	-0.004223	0.001073	-0.000951
01025	12824117	-0.129596	0.210893	-9.818321	-0.004023	-0.000335	0.000962
01026	12824167	-0.140455	0.232925	-9.801733	-0.007184	0.000314	-0.001777
01027	12824217	-0.140276	0.244710	-9.827374	-0.008966	0.006545	0.000565
01028	12824267	-0.146176	0.234293	-9.811529	-0.003374	-0.000589	-0.001185
01029	12824317	-0.136346	0.220088	-9.815170	-0.006291	0.000393	-0.002874
01030	12824367	-0.155773	0.235474	-9.816277	-0.003104	0.004096	-0.001995
01031	12824417	-0.145245	0.227165	-9.816563	-0.007351	0.001860	0.000567
01032	12824467	-0.161826	0.225320	-9.821036	-0.006677	0.004203	0.002858
01033	12824517	-0.147397	0.229702	-9.802895	-0.006276	0.005300	-0.002460
01034	12824567	-0.138322	0.224406	-9.817323	-0.006478	-0.000514	-0.000637
01035	12824617	-0.141531	0.234340	-9.807717	-0.004300	0.004529	-0.001474
01036	12824667	-0.147289	0.214988	-9.814156	-0.006690	-0.000197	-0.003001
01037	12824717	-0.136126	0.210034	-9.809653	-0.005019	0.006132	-0.000027
01038	12824767	-0.134249	0.218959	-9.807996	-0.003408	0.000250	-0.002942
01039	12824817	-0.124416	0.214846	-9.811157	-0.002623	-0.001520	-0.005876
01040	12824867	-0.134707	0.219086	-9.811106	-0.005867	0.000908	-0.006077
01041	12824917	-0.138653	0.209094	-9.818990	-0.002337	-0.000951	0.001211
01042	12824967	-0.132139	0.213452	-9.783314	-0.005946	0.003917	-0.001924
01043	12825017	-0.143730	0.214902	-9.822565	-0.005225	-0.001780	0.000513
01044	12825067	-0.133162	0.222348	-9.808479	-0.004974	-0.000612	0.000385
01045	12825117	-0.135162	0.217612	-9.811100	-0.002782	0.000842	-0.001889
01046	12825167	-0.131118	0.202456	-9.809442	-0.004610	0.003003	-0.002959
01047	12825217	-0.139196	0.221398	-9.816597	-0.002921	0.003194	-0.001972
01048	12825267	-0.130887	0.221846	-9.807769	-0.001769	0.003317	-0.000081
01049	12825317	-0.130793	0.220120	-9.818324	-0.002714	0.003105	0.000241
01050	12825367	-0.149015	0.216836	-9.805522	-0.002082	-0.000013	-0.000770
01051	12825417	-0.135777	0.234625	-9.819729	-0.007248	0.000741	0.001971
01052	12825467	-0.151796	0.216388	-9.811979	-0.000693	0.002760	0.000649
01053	12825517	-0.141486	0.237282	-9.816828	-0.003640	0.003064	0.001908
01054	12825567	-0.134015	0.236204	-9.796731	-0.004990	0.003001	-0.001357
01055	12825617	-0.129313	0.221638	-9.803946	-0.005479	0.000885	-0.004410
01056	12825667	-0.133805	0.234596	-9.832683	-0.005445	0.001155	-0.000402
01057	12825717	-0.142876	0.236974	-9.808913	-0.005776	-0.000308	0.000330
01058	12825767	-0.150634	0.227080	-9.804321	-0.005037	-0.001781	-0.001924
01059	12825817	-0.157435	0.231538	-9.811954	-0.003587	0.001990	-0.002227
01060	12825867	-0.140800	0.224326	-9.814427	-0.005063	0.006191	-0.004636
01061	12825917	-0.133948	0.203109	-9.823566	-0.002921	-0.000001	-0.002693
01062	12825967	-0.142477	0.203982	-9.805068	-0.005481	-0.002049	-0.002759
01063	12826017	-0.150529	0.208678	-9.808144	-0.006244	0.001301	-0.000369
01064	12826067	-0.138683	0.236299	-9.808693	-0.004262	0.003534	0.000824
01065	12826117	-0.133219	0.209534	-9.794093	-0.005239	0.002769	-0.000203
01066	12826167	-0.141899	0.222263	-9.801002	-0.001970	0.002802	0.001006
01067	12826217	-0.145322	0.229328	-9.824238	-0.003836	-0.001601	-0.003655
01068	12826267	-0.145525	0.223753	-9.813208	-0.006241	-0.000929	-0.000506
01069	12826317	-0.139742	0.218800	-9.800054	-0.004233	0.003105	-0.003760
01070	12826367	-0.144007	0.214190	-9.796435	-0.003899	0.001824	-0.002103
01071	12826417	-0.140704	0.225232	-9.818742	-0.005171	0.001603	-0.002901
01072	12826467	-0.150610	0.221788	-9.785383	-0.003400	0.000189	-0.001312
01073	12826517	-0.145267	0.214009	-9.788524	-0.003272	0.000156	-0.001471
01074	12826567	-0.141267	0.212447	-9.818498	-0.003449	0.000966	0.001898
01075	12826617	-0.124716	0.218503	-9.812116	-0.004575	0.001037	-0.000632
01076	12826667	-0.128110	0.216215	-9.822885	-0.004865	0.004228	0.000057
01077	12826717	-0.140737	0.224645	-9.809641	-0.004289	0.002044	-0.001841
01078	12826767	-0.156189	0.222495	-9.802609	-0.006139	0.001044	0.000594
01079	12826817	-0.132934	0.215891	-9.821182	-0.003660	-0.000852	-0.003334
01080	12826867	-0.124291	0.212043	-9.822901	-0.006190	0.000366	-0.000663
01081	12826917	-0.125536	0.204920	-9.821458	-0.007252	-0.002431	-0.000419
01082	12826967	-0.136356	0.221794	-9.817087	-0.005650	0.001635	-0.000527
01083	12827017	-0.151962	0.207742	-9.800710	-0.004364	0.002300	-0.001328
01084	12827067	-0.135536	0.216316	-9.814691	-0.005478	0.003151	-0.001448
01085	12827117	-0.137932	0.214708	-9.821391	-0.006774	0.000709	-0.000242
01086	12827167	-0.145375	0.220997	-9.810341	-0.002155	0.003273	-0.000753
01087	12827217	-0.142925	0.228319	-9.819220	-0.001259	-0.000745	-0.001002
01088	12827267	-0.139784	0.223091	-9.813238	-0.007007	-0.000170	-0.002745
01089	12827317	-0.141339	0.212701	-9.812986	-0.007540	-0.000169	0.002255
01090	12827367	-0.160194	0.225629	-9.826558	-0.004029	0.000688	-0.002682
01091	12827417	-0.127270	0.213755	-9.806348	-0.001331	0.001546	-0.001857
01092	12827467	-0.142567	0.229061	-9.834799	-0.004080	0.000204	-0.003100
01093	12827517	-0.149257	0.227628	-9.823497	-0.005647	0.001501	-0.001811
01094	12827567	-0.163146	0.234460	-9.797305	-0.005569	-0.000720	0.000586
01095	12827617	-0.152416	0.221958	-9.817970	-0.003052	-0.001039	-0.004169
01096	12827667	-0.107137	0.205269	-9.815558	-0.005819	0.001659	-0.002065
01097	12827717	-0.108456	0.220717	-9.827053	-0.001720	0.000505	-0.001831
01098	12827767	-0.128158	0.224434	-9.812818	-0.005859	-0.001050	-0.001825
01099	12827817	-0.139189	0.219883	-9.831212	-0.007467	-0.003187	-0.006190
01100	12827867	-0.134000	0.210836	-9.805361	-0.003423	-0.000232	-0.002403
01101	12827917	-0.132154	0.229502	-9.825257	-0.002980	0.001361	0.001133
01102	12827967	-0.148324	0.222564	-9.810321	0.000436	0.001324	-0.001218
01103	12828017	-0.145215	0.223302	-9.820398	-0.002783	0.000911	-0.001466
01104	12828067	-0.148458	0.213133	-9.806240	-0.005990	0.001536	0.003543
01105	12828117	-0.136266	0.227774	-9.806784	-0.007667	0.001662	0.000215
01106	12828167	-0.160935	0.233331	-9.804029	-0.004876	-0.000075	-0.005474
01107	12828217	-0.151328	0.237312	-9.811265	-0.004425	0.001400	0.000173
01108	12828267	-0.146702	0.219833	-9.794026	-0.004336	0.002758	0.000949
01109	12828317	-0.148957	0.228862	-9.812480	-0.004599	-0.003124	0.001848
01110	12828367	-0.138888	0.228594	-9.816602	-0.005571	-0.001079	-0.002464
01111	12828417	-0.139065	0.225956	-9.814680	-0.004220	-0.000081	0.001541
01112	12828467	-0.132436	0.228143	-9.812318	-0.005905	0.001366	-0.002611
01113	12828517	-0.153659	0.242078	-9.796878	-0.004574	0.002105	-0.000428
01114	12828567	-0.146413	0.230197	-9.822071	-0.004666	0.003010	0.001114
01115	12828617	-0.155207	0.226616	-9.823467	-0.005044	0.001676	-0.000462
01116	12828667	-0.125047	0.214585	-9.821460	-0.004350	0.001881	-0.001843
01117	12828717	-0.152837	0.217460	-9.816291	-0.004387	-0.000993	-0.001664
01118	12828767	-0.143301	0.220093	-9.807465	-0.004202	0.001941	-0.004662
01119	12828817	-0.142870	0.227183	-9.819931	-0.006488	0.000877	0.000274
01120	12828867	-0.145310	0.223492	-9.799067	-0.005769	0.002274	-0.002257
01121	12828917	-0.142869	0.232462	-9.797169	-0.004419	0.000204	0.000324
01122	12828967	-0.135282	0.219942	-9.828597	-0.000755	0.002327	-0.003103
01123	12829017	-0.133845	0.219520	-9.828362	-0.001211	0.002743	-0.001945
01124	12829067	-0.137409	0.228758	-9.818279	0.000129	-0.000166	-0.000841
01125	12829117	-0.135743	0.228036	-9.814694	-0.001436	0.002199	0.002385
01126	12829167	-0.135746	0.230933	-9.815895	-0.003056	0.002453	-0.001298
01127	12829217	-0.156176	0.217059	-9.805487	-0.005715	-0.000730	-0.004031
01128	12829267	-0.126164	0.219734	-9.807796	-0.001794	-0.000078	-0.002214
01129	12829317	-0.136064	0.225449	-9.800317	-0.000516	-0.000188	-0.003242
01130	12829367	-0.155434	0.237147	-9.820355	-0.001392	-0.000746	-0.001803
01131	12829417	-0.154689	0.230888	-9.798539	-0.004791	0.001775	-0.001393
01132	12829467	-0.149856	0.213443	-9.809585	-0.005598	0.002030	0.000118
01133	12829517	-0.157090	0.216001	-9.815071	-0.005019	-0.002393	-0.002729
01134	12829567	-0.140482	0.216232	-9.800292	-0.006368	0.000843	-0.002164
01135	12829617	-0.142593	0.236803	-9.814666	-0.003453	-0.001104	-0.000258
01136	12829667	-0.130652	0.234572	-9.834617	-0.003689	0.002415	0.000591
01137	12829717	-0.126080	0.223203	-9.834635	0.000490	-0.000490	-0.001169
01138	12829767	-0.158591	0.239037	-9.813379	-0.005836	-0.000764	-0.002844
01139	12829817	-0.138064	0.220727	-9.803661	-0.003334	0.003158	-0.001875
01140	12829867	-0.158905	0.226408	-9.805474	-0.000548	0.001206	-0.000053
01141	12829917	-0.123155	0.228232	-9.812364	-0.005155	0.001178	-0.001007
01142	12829967	-0.139720	0.223604	-9.812283	-0.000434	0.002617	-0.001554
01143	12830017	-0.131900	0.225476	-9.817828	0.000543	0.002791	-0.004505
01144	12830067	-0.134181	0.206872	-9.820211	-0.005476	0.003239	-0.001890
01145	12830117	-0.146319	0.238751	-9.822798	-0.002820	0.000119	-0.001978
01146	12830167	-0.136991	0.242634	-9.834822	-0.002900	0.001938	0.001687
01147	12830217	-0.132211	0.216348	-9.815665	-0.005796	0.003630	0.001992
01148	12830267	-0.150024	0.229658	-9.813181	-0.009107	0.002755	-0.001591
01149	12830317	-0.159698	0.223950	-9.813376	-0.002006	0.001818	-0.000559
01150	12830367	-0.145333	0.229671	-9.806260	-0.000738	0.001964	-0.003447
01151	12830417	-0.159503	0.218172	-9.790854	-0.004705	0.003093	-0.002438
01152	12830467	-0.141240	0.215518	-9.799332	-0.004215	-0.001588	-0.004481
01153	12830517	-0.138206	0.218220	-9.816363	-0.006094	0.002420	-0.003076
01154	12830567	-0.153843	0.233763	-9.826830	-0.004138	0.000591	0.001430
01155	12830617	-0.135940	0.235103	-9.792413	-0.005124	0.004048	-0.005120
01156	12830667	-0.138379	0.232846	-9.819476	-0.002395	0.000739	-0.004220
01157	12830717	-0.137779	0.224991	-9.814923	-0.003975	0.003564	0.000449
01158	12830767	-0.145926	0.223874	-9.810574	-0.003567	0.002597	-0.001030
01159	12830817	-0.139477	0.236050	-9.838407	-0.006128	0.002649	-0.000447
01160	12830867	-0.153996	0.223925	-9.821549	-0.002138	0.002715	-0.003150
01161	12830917	-0.149048	0.221537	-9.816788	-0.001393	-0.000792	-0.003298
01162	12830967	-0.140922	0.223669	-9.821145	-0.004996	-0.000785	-0.001015
01163	12831017	-0.131637	0.206945	-9.817352	-0.008795	0.000957	-0.000770
01164	12831067	-0.132986	0.219576	-9.813993	-0.004086	0.002583	-0.002954
01165	12831117	-0.143378	0.216464	-9.792841	-0.002428	0.000967	-0.001268
01166	12831167	-0.152228	0.219928	-9.824199	-0.001942	0.001691	-0.000589
01167	12831217	-0.141937	0.210924	-9.807467	-0.006156	0.003617	-0.001788
01168	12831267	-0.160053	0.246198	-9.819369	-0.007246	0.000364	-0.002858
01169	12831317	-0.136281	0.218314	-9.823082	-0.006475	0.002415	-0.001311
01170	12831367	-0.145139	0.217452	-9.809373	-0.004284	0.002101	0.000251
01171	12831417	-0.138558	0.224613	-9.819235	-0.005910	0.000716	-0.000970
01172	12831467	-0.140306	0.196244	-9.817305	-0.003511	0.003018	0.000507
01173	12831517	-0.128194	0.203681	-9.837255	-0.006615	-0.000264	-0.000911
01174	12831567	-0.137748	0.217982	-9.817560	-0.006325	0.001577	-0.002405
01175	12831617	-0.120539	0.212316	-9.821482	-0.006776	0.001126	0.001596
01176	12831667	-0.135288	0.229756	-9.815656	-0.002764	0.001446	-0.001910
01177	12831717	-0.134821	0.219977	-9.821168	-0.005380	0.003341	-0.000737
01178	12831767	-0.144219	0.231644	-9.801952	-0.005520	0.000457	-0.003665
01179	12831817	-0.129977	0.222931	-9.814005	-0.003914	0.000263	-0.002714
01180	12831867	-0.137170	0.224828	-9.799110	-0.005097	0.003377	-0.002526
01181	12831917	-0.151419	0.228484	-9.819414	-0.004889	0.000895	-0.001324
01182	12831967	-0.139086	0.218500	-9.823542	-0.006236	0.003034	-0.000414
01183	12832017	-0.143183	0.228150	-9.810112	-0.002256	0.000424	-0.002231
01184	12832067	-0.151878	0.225628	-9.815571	-0.007311	0.000392	-0.004173
01185	12832117	-0.147480	0.228733	-9.819200	-0.003909	-0.002702	0.000256
01186	12832167	-0.126009	0.226653	-9.807320	-0.002681	0.000542	-0.004567
01187	12832217	-0.135663	0.203685	-9.812778	-0.005142	0.002531	-0.004551
01188	12832267	-0.125430	0.225528	-9.809959	-0.004015	0.003655	-0.000928
01189	12832317	-0.126684	0.221166	-9.802040	-0.005168	0.001237	-0.003760
01190	12832367	-0.145750	0.234157	-9.824713	-0.001834	0.001532	0.000402
01191	12832417	-0.137410	0.225451	-9.815891	-0.003202	0.000086	-0.001305
01192	12832467	-0.141530	0.219227	-9.828332	-0.005393	-0.000471	-0.001523
01193	12832517	-0.140401	0.208000	-9.805808	-0.004292	-0.002302	-0.006633
01194	12832567	-0.132238	0.203647	-9.813029	-0.002033	0.005389	-0.004967
01195	12832617	-0.138096	0.221376	-9.813483	-0.001791	0.000946	-0.003448
01196	12832667	-0.147185	0.236232	-9.824939	-0.005720	0.002846	-0.003427
01197	12832717	-0.131298	0.212003	-9.807528	-0.006693	0.001118	-0.002635
01198	12832767	-0.141746	0.212844	-9.810345	-0.006747	0.003124	-0.001534
01199	12832817	-0.128671	0.222392	-9.793647	-0.004004	0.001431	0.000724
01200	12832867	-0.145703	0.230833	-9.810089	-0.007454	0.003106	-0.001500
01201	12832917	-0.148095	0.234361	-9.797620	-0.004062	0.000135	-0.000078
01202	12832967	-0.142307	0.220871	-9.814419	-0.002370	0.001000	-0.003575
01203	12833017	-0.138188	0.213642	-9.815403	-0.005039	0.001440	-0.002570
01204	12833067	-0.130733	0.237226	-9.830787	-0.005426	0.001726	-0.000068
01205	12833117	-0.145305	0.225040	-9.815375	-0.000542	-0.002124	-0.000099
01206	12833167	-0.152022	0.229259	-9.815340	-0.001931	0.000263	-0.002425
01207	12833217	-0.143361	0.226863	-9.809628	0.001720	0.001105	-0.002819
01208	12833267	-0.148260	0.235338	-9.813914	-0.006849	-0.000016	-0.003889
01209	12833317	-0.149357	0.238611	-9.827328	-0.005306	0.001922	-0.001284
01210	12833367	-0.144742	0.234995	-9.822328	-0.005732	0.003628	0.000457
01211	12833417	-0.139068	0.231566	-9.811799	-0.003904	0.004336	0.000390
01212	12833467	-0.153135	0.247525	-9.812215	-0.003339	0.002340	-0.001321
01213	12833517	-0.155455	0.222970	-9.819869	-0.005253	-0.001620	0.001965
01214	12833567	-0.137607	0.218825	-9.804383	-0.000867	0.000996	-0.002073
01215	12833617	-0.143417	0.229846	-9.815378	-0.002044	0.001078	0.000463
01216	12833667	-0.131367	0.209838	-9.816869	-0.001883	0.004377	0.001825
01217	12833717	-0.146381	0.222418	-9.809844	-0.004004	0.002497	0.000540
01218	12833767	-0.151820	0.234063	-9.803590	-0.001886	0.002209	0.000822
01219	12833817	-0.137235	0.224487	-9.798871	-0.002449	-0.000581	-0.001276
01220	12833867	-0.135355	0.230855	-9.800798	-0.006415	0.001514	-0.001992
01221	12833917	-0.133934	0.217186	-9.813506	-0.004788	0.002098	0.002271
01222	12833967	-0.133907	0.209730	-9.801517	-0.005871	0.003684	-0.000925
01223	12834017	-0.146653	0.227735	-9.814637	-0.005916	0.002006	-0.002409
01224	12834067	-0.163245	0.227751	-9.795384	-0.004687	0.001378	-0.002731
01225	12834117	-0.157620	0.218843	-9.818654	-0.002768	-0.001682	-0.001661
01226	12834167	-0.145116	0.241995	-9.827592	-0.004623	-0.000485	-0.000341
01227	12834217	-0.150533	0.233443	-9.817738	-0.006434	0.003254	-0.000603
01228	12834267	-0.135851	0.212794	-9.820203	-0.004791	-0.000333	-0.002327
01229	12834317	-0.128262	0.222132	-9.819047	-0.005390	-0.000599	-0.000533
01230	12834367	-0.151850	0.241147	-9.819415	0.000483	0.001691	-0.004508
01231	12834417	-0.136105	0.228476	-9.796246	-0.002902	0.000808	0.001295
01232	12834467	-0.160513	0.229948	-9.817214	-0.002731	0.002647	0.000539
01233	12834517	-0.119165	0.210063	-9.800397	-0.003523	0.002477	0.003194
01234	12834567	-0.139332	0.218078	-9.823780	-0.006592	0.002158	-0.001410
01235	12834617	-0.129431	0.203175	-9.824553	-0.004631	0.001936	0.000379
01236	12834667	-0.139096	0.222911	-9.804374	-0.004105	0.000296	-0.000788
01237	12834717	-0.135104	0.228504	-9.821649	-0.005835	0.005590	-0.001363
01238	12834767	-0.158365	0.230878	-9.826088	-0.007623	0.000659	0.002849
01239	12834817	-0.149771	0.215086	-9.808631	-0.005767	0.005329	-0.003961
01240	12834867	-0.140181	0.230170	-9.793821	-0.006361	0.002000	-0.000800
01241	12834917	-0.157903	0.233146	-9.820102	-0.004626	0.002641	-0.002691
01242	12834967	-0.151408	0.225971	-9.814860	-0.003014	0.001516	0.002037
01243	12835017	-0.139152	0.225020	-9.823071	-0.002468	0.003294	-0.001770
01244	12835067	-0.136417	0.217989	-9.808459	-0.001995	0.000104	-0.003835
01245	12835117	-0.133763	0.219895	-9.813510	-0.004309	0.000640	-0.003284
01246	12835167	-0.143798	0.226648	-9.815852	-0.007362	0.002506	0.000963
01247	12835217	-0.134876	0.204936	-9.805348	-0.004112	-0.000381	-0.000215
01248	12835267	-0.132984	0.207240	-9.830288	-0.004032	0.000005	-0.001077
01249	12835317	-0.136468	0.234768	-9.828351	-0.007389	0.001814	-0.003333
01250	12835367	-0.142246	0.222209	-9.824972	-0.003695	0.000336	-0.002613
01251	12835417	-0.144781	0.250265	-9.828322	-0.003640	0.000215	0.002194
01252	12835467	-0.150493	0.227753	-9.804799	-0.003281	0.003029	0.001020
01253	12835517	-0.147382	0.226352	-9.821591	-0.001862	-0.001027	-0.002497
01254	12835567	-0.131950	0.226420	-9.806083	-0.004936	0.002343	-0.002891
01255	12835617	-0.121666	0.209090	-9.787924	-0.002195	-0.000349	0.000134
01256	12835667	-0.141377	0.227940	-9.822342	-0.005154	0.002314	0.000928
01257	12835717	-0.156313	0.219812	-9.819382	-0.002649	0.002802	-0.001385
01258	12835767	-0.148736	0.245097	-9.816077	-0.006300	0.004259	-0.000373
01259	12835817	-0.153614	0.223776	-9.808617	-0.004870	0.001221	-0.000872
01260	12835867	-0.125609	0.219678	-9.824571	-0.006785	0.000317	0.000596
01261	12835917	-0.148001	0.225561	-9.817033	-0.001363	0.003600	-0.001800
01262	12835967	-0.125169	0.220976	-9.819782	-0.003801	0.002685	-0.003788
01263	12836017	-0.142889	0.226464	-9.818736	-0.006369	0.001027	-0.003052
01264	12836067	-0.127836	0.218998	-9.805388	-0.001852	0.001080	0.000329
01265	12836117	-0.135516	0.222566	-9.803188	-0.007158	0.000855	-0.000997
01266	12836167	-0.139534	0.226325	-9.809402	-0.005674	0.002495	-0.000484
01267	12836217	-0.133657	0.229338	-9.789789	-0.003890	-0.002677	-0.003203
01268	12836267	-0.159116	0.246948	-9.804521	-0.006667	0.001311	-0.003497
01269	12836317	-0.143129	0.217474	-9.816577	-0.007854	0.003585	-0.001013
01270	12836367	-0.134382	0.221195	-9.818773	-0.000983	0.003838	-0.001161
01271	12836417	-0.125193	0.219947	-9.813307	-0.004896	0.000022	-0.001907
01272	12836467	-0.135073	0.233437	-9.824288	-0.002325	-0.000249	-0.000378
01273	12836517	-0.138472	0.226117	-9.823310	-0.007056	0.003730	-0.000630
01274	12836567	-0.142840	0.215736	-9.807707	-0.001872	-0.001177	0.002183
01275	12836617	-0.127628	0.228278	-9.806829	-0.001600	0.002950	-0.003247
01276	12836667	-0.147755	0.231174	-9.808409	-0.004744	0.001183	-0.002864
01277	12836717	-0.133748	0.214259	-9.790257	-0.005289	0.003503	-0.001344
01278	12836767	-0.115971	0.209921	-9.822466	-0.003473	0.000727	-0.000114
01279	12836817	-0.125049	0.216674	-9.819782	-0.001478	0.001983	-0.004118
01280	12836867	-0.159907	0.207489	-9.806424	-0.002967	-0.000464	-0.003516
01281	12836917	-0.148312	0.229515	-9.801683	-0.006583	-0.001331	-0.002483
01282	12836967	-0.134650	0.221306	-9.820215	-0.004274	0.001813	-0.000427
01283	12837017	-0.149879	0.217312	-9.816781	-0.005331	0.001464	-0.003306
01284	12837067	-0.126506	0.214997	-9.818094	-0.004867	0.002057	-0.002410
01285	12837117	-0.129731	0.221615	-9.819040	-0.005428	-0.001208	0.001356
01286	12837167	-0.138079	0.223900	-9.817083	-0.005893	0.000100	-0.002129
01287	12837217	-0.123270	0.221748	-9.818835	-0.005817	0.002613	-0.004680
01288	12837267	-0.152283	0.220895	-9.826362	-0.002355	0.000487	-0.002808
01289	12837317	-0.128389	0.221470	-9.825273	-0.004321	0.003329	0.000288
01290	12837367	-0.133130	0.221487	-9.829807	-0.005312	0.003245	-0.000191
01291	12837417	-0.142789	0.212687	-9.805551	-0.005193	-0.000655	0.000652
01292	12837467	-0.137700	0.222024	-9.800302	-0.007536	-0.000545	-0.002514
01293	12837517	-0.143733	0.222136	-9.820163	-0.001893	0.001311	0.001072
01294	12837567	-0.126884	0.212999	-9.809469	-0.006578	-0.002623	-0.001919
01295	12837617	-0.139840	0.216438	-9.815628	-0.004233	0.002491	0.000250
01296	12837667	-0.137419	0.218727	-9.822116	-0.003992	0.002912	-0.000228
01297	12837717	-0.142030	0.210742	-9.813464	-0.005926	-0.000033	-0.003026
01298	12837767	-0.142298	0.239468	-9.817541	-0.004667	0.001065	-0.000490
01299	12837817	-0.151481	0.221023	-9.797606	-0.004660	0.000706	-0.001104
01300	12837867	-0.145235	0.237313	-9.806268	-0.002845	0.001828	-0.003346
01301	12837917	-0.131444	0.203654	-9.813994	-0.004301	0.000387	-0.001842
01302	12837967	-0.140751	0.208064	-9.813714	-0.004237	0.000384	-0.002452
01303	12838017	-0.141121	0.195092	-9.806752	-0.002246	0.001433	0.000721
01304	12838067	-0.135420	0.211084	-9.813491	-0.006697	0.005445	-0.001395
01305	12838117	-0.143627	0.215550	-9.823525	-0.003561	0.002503	-0.000104
01306	12838167	-0.153657	0.226398	-9.820124	0.000316	-0.002018	-0.001389
01307	12838217	-0.145223	0.226681	-9.818484	-0.006255	0.001744	-0.000738
01308	12838267	-0.161103	0.237515	-9.815045	-0.005612	0.000427	-0.002994
01309	12838317	-0.136733	0.206629	-9.791919	-0.003340	0.003604	-0.000706
01310	12838367	-0.145765	0.233393	-9.798356	-0.003605	-0.000276	-0.000694
01311	12838417	-0.145083	0.220091	-9.803859	-0.006422	-0.003431	-0.001758
01312	12838467	-0.151504	0.232951	-9.817498	-0.005610	0.001632	0.000928
01313	12838517	-0.148453	0.234105	-9.812238	-0.004780	0.002512	-0.000100
01314	12838567	-0.136893	0.229139	-9.820923	-0.005763	0.002167	-0.003112
01315	12838617	-0.136123	0.212372	-9.811336	-0.002523	-0.000063	0.000392
01316	12838667	-0.142034	0.227730	-9.843182	-0.005835	-0.000770	-0.002872
01317	12838717	-0.118807	0.209230	-9.823167	-0.004708	-0.001109	-0.003966
01318	12838767	-0.142326	0.226386	-9.816579	-0.003786	0.002366	-0.001387
01319	12838817	-0.142690	0.212496	-9.812734	-0.009020	0.002017	-0.001435
01320	12838867	-0.140757	0.226432	-9.818273	-0.004487	-0.001043	-0.004929
01321	12838917	-0.141391	0.226996	-9.818498	-0.005990	0.002328	-0.001478
01322	12838967	-0.135345	0.232090	-9.809427	-0.005643	0.001430	-0.001994
01323	12839017	-0.135308	0.227880	-9.815418	-0.003447	-0.000570	-0.003549
01324	12839067	-0.145597	0.227688	-9.812015	-0.003609	-0.001375	-0.000796
01325	12839117	-0.135564	0.239281	-9.830277	-0.004343	0.000710	-0.001582
01326	12839167	-0.137919	0.215693	-9.822591	-0.005715	0.000522	-0.003251
01327	12839217	-0.135827	0.218632	-9.815413	-0.005437	0.001214	0.000408
01328	12839267	-0.136624	0.219326	-9.817568	-0.004193	0.000231	0.000016
01329	12839317	-0.149744	0.236583	-9.808163	-0.001760	-0.000916	0.000162
01330	12839367	-0.127200	0.229919	-9.818101	-0.003949	0.000425	-0.002903
01331	12839417	-0.140215	0.224080	-9.818032	-0.003811	0.001402	0.001271
01332	12839467	-0.132038	0.205553	-9.828372	-0.002835	0.000609	0.000077
01333	12839517	-0.161674	0.227156	-9.817204	-0.005056	0.001118	-0.001287
01334	12839567	-0.138890	0.214743	-9.815392	-0.002731	0.001391	-0.000363
01335	12839617	-0.130842	0.218755	-9.817596	-0.004464	0.000381	-0.003254
01336	12839667	-0.127505	0.211911	-9.798436	-0.006820	0.002280	-0.001797
01337	12839717	-0.143525	0.227370	-9.820650	-0.005378	0.003245	-0.001023
01338	12839767	-0.137440	0.224392	-9.837692	-0.005172	0.000498	-0.003634
01339	12839817	-0.120592	0.202458	-9.831308	-0.003909	-0.000737	-0.000219
01340	12839867	-0.129480	0.210292	-9.827670	-0.003090	0.001705	-0.001100
01341	12839917	-0.144092	0.241240	-9.812023	-0.003691	-0.001168	0.003570
01342	12839967	-0.137197	0.243329	-9.809416	0.000333	-0.001170	-0.000224
01343	12840017	-0.119935	0.218802	-9.813818	-0.004728	0.000036	0.001171
01344	12840067	-0.141859	0.217038	-9.827605	-0.003964	0.003311	0.000802
01345	12840117	-0.151510	0.215300	-9.817723	-0.002059	0.002794	-0.000291
01346	12840167	-0.142985	0.220948	-9.820657	-0.002456	0.002041	-0.001130
01347	12840217	-0.127077	0.222423	-9.793650	-0.003423	-0.002718	0.000961
01348	12840267	-0.143963	0.221126	-9.812016	-0.005076	0.001667	-0.004586
01349	12840317	-0.144664	0.232384	-9.803624	-0.005366	0.001156	0.002047
01350	12840367	-0.140335	0.225528	-9.834803	-0.003796	0.002052	0.000990
01351	12840417	-0.156603	0.242787	-9.819149	-0.002515	0.002581	-0.004137
01352	12840467	-0.148327	0.226562	-9.817511	-0.003552	0.002115	-0.002858
01353	12840517	-0.138276	0.205648	-9.825460	-0.002768	0.001681	-0.001355
01354	12840567	-0.133500	0.223297	-9.822618	-0.003801	0.001047	-0.002189
01355	12840617	-0.138349	0.211844	-9.811321	-0.003267	0.003516	0.000416
01356	12840667	-0.137608	0.227533	-9.827632	-0.003701	0.001053	0.000697
01357	12840717	-0.133637	0.229193	-9.809436	-0.002512	-0.000949	0.004175
01358	12840767	-0.123410	0.217089	-9.795820	-0.006029	-0.001509	-0.001110
01359	12840817	-0.143423	0.225608	-9.810343	-0.002762	0.000490	-0.000494
01360	12840867	-0.132168	0.223695	-9.813995	-0.005816	-0.000250	-0.003474
01361	12840917	-0.143448	0.216165	-9.798829	-0.003872	0.004441	-0.001497
01362	12840967	-0.143967	0.231185	-9.803147	-0.006983	0.000508	-0.001478
01363	12841017	-0.132053	0.220634	-9.819033	-0.004055	-0.000187	-0.003384
01364	12841067	-0.137753	0.208798	-9.838887	-0.003674	0.001985	-0.002347
01365	12841117	-0.131508	0.206122	-9.816631	-0.005487	-0.002340	-0.001080
01366	12841167	-0.136274	0.225806	-9.791925	-0.002265	0.003976	-0.002880
01367	12841217	-0.138451	0.227094	-9.799828	-0.003009	0.002322	-0.000967
01368	12841267	-0.149326	0.217553	-9.823731	-0.000937	0.001593	0.002486
01369	12841317	-0.125181	0.216687	-9.816421	-0.005133	-0.000526	-0.002162
01370	12841367	-0.143198	0.223586	-9.837189	-0.004818	-0.001356	-0.000469
01371	12841417	-0.136083	0.213597	-9.810861	-0.005221	0.000314	-0.000679
01372	12841467	-0.140241	0.240584	-9.814683	-0.002062	0.000002	-0.006814
01373	12841517	-0.128377	0.210672	-9.817123	-0.003640	0.002149	-0.000744
01374	12841567	-0.130741	0.230462	-9.814966	-0.002768	0.001778	-0.000425
01375	12841617	-0.145906	0.242806	-9.812013	-0.000846	0.001974	0.000855
01376	12841667	-0.124381	0.218594	-9.818346	-0.003715	0.001206	-0.003666
01377	12841717	-0.129909	0.220183	-9.823593	-0.003551	0.000115	-0.001971
01378	12841767	-0.163850	0.244769	-9.824629	-0.005237	-0.000810	0.001752
01379	12841817	-0.145347	0.234151	-9.809376	-0.004813	0.000743	-0.000907
01380	12841867	-0.142033	0.220608	-9.823528	-0.003213	0.000542	-0.002898
01381	12841917	-0.134469	0.206457	-9.825963	-0.002607	0.000521	-0.000659
01382	12841967	-0.139430	0.226717	-9.819956	-0.004169	0.002690	-0.001828
01383	12842017	-0.136394	0.217779	-9.809425	-0.003800	-0.000213	-0.003577
01384	12842067	-0.130401	0.221691	-9.808735	-0.005139	0.003157	-0.000285
01385	12842117	-0.141127	0.225497	-9.831924	-0.005288	-0.000622	-0.001102
01386	12842167	-0.138753	0.218717	-9.810602	-0.002753	0.001296	-0.000205
01387	12842217	-0.113741	0.210611	-9.826543	-0.006911	0.001988	-0.003555
01388	12842267	-0.136002	0.233602	-9.818772	-0.003277	0.002639	-0.002374
01389	12842317	-0.141459	0.233630	-9.821386	-0.007559	0.001565	-0.000313
01390	12842367	-0.125837	0.204783	-9.828399	-0.007104	0.002348	-0.000636
01391	12842417	-0.132964	0.213815	-9.821178	-0.004883	-0.000523	-0.003731
01392	12842467	-0.155430	0.222404	-9.827054	-0.004653	-0.001449	-0.000501
01393	12842517	-0.134705	0.224064	-9.815180	-0.003261	0.003584	0.003015
01394	12842567	-0.134620	0.225556	-9.799124	-0.004813	0.000576	-0.002702
01395	12842617	-0.138761	0.217338	-9.820910	-0.008031	0.000163	-0.002599
01396	12842667	-0.149587	0.234023	-9.811513	-0.004465	0.005809	-0.002962
01397	12842717	-0.130019	0.204764	-9.819515	-0.004327	-0.001702	-0.001244
01398	12842767	-0.135498	0.206296	-9.833388	-0.001954	0.002181	-0.001515
01399	12842817	-0.146709	0.233774	-9.807452	-0.003896	0.004315	0.000492
01400	12842867	-0.120490	0.204017	-9.811172	-0.004204	0.000459	-0.002996
01401	12842917	-0.142139	0.223105	-9.802682	-0.005582	0.001625	-0.003399
01402	12842967	-0.121196	0.209421	-9.811178	-0.001649	0.001833	-0.000782
01403	12843017	-0.139122	0.226156	-9.802454	-0.001716	0.001527	-0.005045
01404	12843067	-0.137023	0.231264	-9.807742	-0.004151	0.001407	0.002879
01405	12843117	-0.140612	0.219308	-9.814189	-0.006877	0.001152	-0.002312
01406	12843167	-0.152546	0.222420	-9.813656	-0.004114	0.001819	-0.000837
01407	12843217	-0.149780	0.224229	-9.801679	-0.006393	0.003069	-0.002491
01408	12843267	-0.127475	0.211144	-9.815454	-0.004530	-0.000814	-0.006747
01409	12843317	-0.142784	0.228830	-9.821133	-0.003732	0.002793	-0.001667
01410	12843367	-0.161470	0.246995	-9.820087	-0.002363	0.000038	-0.001752
01411	12843417	-0.148733	0.236100	-9.818474	-0.004396	-0.001480	-0.001496
01412	12843467	-0.150930	0.244552	-9.819655	-0.002150	0.001139	-0.003217
01413	12843517	-0.124027	0.228364	-9.808050	-0.002491	0.003005	-0.001732
01414	12843567	-0.149807	0.234823	-9.804330	-0.002319	-0.002218	0.000352
01415	12843617	-0.138930	0.217789	-9.809644	-0.003941	0.002369	-0.002888
01416	12843667	-0.142350	0.217887	-9.807475	-0.000773	0.000064	-0.004797
01417	12843717	-0.136354	0.219660	-9.813008	0.000253	0.002221	-0.001263
01418	12843767	-0.158160	0.230849	-9.814819	-0.001029	0.001687	0.002778
01419	12843817	-0.136725	0.217444	-9.812770	-0.005402	0.004119	-0.002331
01420	12843867	-0.141882	0.234075	-9.803404	-0.005621	0.001886	-0.001859
01421	12843917	-0.126483	0.215221	-9.818337	-0.004494	0.000649	-0.001163
01422	12843967	-0.142118	0.228986	-9.825447	-0.006641	0.001869	-0.001600
01423	12844017	-0.131008	0.225328	-9.803944	-0.002097	0.000623	-0.002423
01424	12844067	-0.150103	0.232102	-9.808876	-0.002755	0.001625	0.000826
01425	12844117	-0.152219	0.234321	-9.816771	-0.002990	0.002446	-0.003527
01426	12844167	-0.145179	0.234408	-9.806985	-0.001360	0.000641	-0.001490
01427	12844217	-0.143733	0.230208	-9.804830	-0.002541	-0.001610	-0.002012
01428	12844267	-0.140991	0.229552	-9.817312	-0.007137	0.000344	0.000156
01429	12844317	-0.137455	0.213012	-9.803176	-0.003976	0.002597	-0.000770
01430	12844367	-0.134953	0.215628	-9.804873	-0.003269	0.002214	-0.003818
01431	12844417	-0.161395	0.239444	-9.820562	-0.001086	-0.001869	-0.000636
01432	12844467	-0.130746	0.201685	-9.804174	-0.004397	-0.000674	-0.003160
01433	12844517	-0.143304	0.203848	-9.812493	-0.008621	0.001738	-0.001433
01434	12844567	-0.137664	0.232950	-9.820198	-0.005604	0.001439	-0.000675
01435	12844617	-0.154339	0.237666	-9.819881	-0.003912	0.002202	-0.004615
01436	12844667	-0.133744	0.232033	-9.807040	-0.004553	-0.000482	-0.001268
01437	12844717	-0.145428	0.219462	-9.811049	-0.007541	0.000656	-0.004487
01438	12844767	-0.135908	0.213282	-9.805352	-0.004813	0.008039	0.000673
01439	12844817	-0.130692	0.218034	-9.800572	-0.004935	0.002284	-0.003014
01440	12844867	-0.133995	0.213164	-9.825006	-0.006124	0.003785	-0.001720
01441	12844917	-0.134087	0.237990	-9.805842	-0.004775	-0.001618	-0.000792
01442	12844967	-0.134343	0.223174	-9.810870	-0.007942	-0.000671	-0.002506
01443	12845017	-0.132175	0.236578	-9.822144	-0.005110	-0.006595	-0.003379
01444	12845067	-0.132914	0.229108	-9.807518	-0.007548	0.001340	-0.000190
01445	12845117	-0.157660	0.248083	-9.816506	-0.005534	0.000308	-0.001094
01446	12845167	-0.137334	0.234326	-9.801744	-0.005031	0.001346	-0.004012
01447	12845217	-0.134487	0.220996	-9.815660	-0.003263	-0.000075	-0.002451
01448	12845267	-0.133456	0.212720	-9.815187	-0.003260	-0.001071	-0.002141
01449	12845317	-0.140648	0.227299	-9.824737	-0.004819	0.001505	-0.005902
01450	12845367	-0.135893	0.218940	-9.816848	-0.006746	0.001129	-0.000162
01451	12845417	-0.117673	0.203941	-9.799925	-0.003870	0.001343	0.000951
01452	12845467	-0.139177	0.240713	-9.826900	-0.008362	0.001548	-0.002749
01453	12845517	-0.148445	0.219429	-9.821101	-0.002476	0.002259	-0.005037
01454	12845567	-0.128769	0.234187	-9.806589	-0.003163	-0.000039	-0.001971
01455	12845617	-0.119443	0.218458	-9.811661	-0.000909	0.002647	-0.002062
01456	12845667	-0.125183	0.238413	-9.835364	0.000092	0.002310	-0.003062
01457	12845717	-0.136676	0.225787	-9.803426	-0.004366	0.003981	0.001068
01458	12845767	-0.137113	0.223235	-9.807739	-0.004295	0.001329	-0.003757
01459	12845817	-0.137001	0.230519	-9.818529	-0.004224	-0.000801	-0.001588
01460	12845867	-0.125309	0.212034	-9.807315	-0.005556	0.003219	0.002568
01461	12845917	-0.137630	0.219744	-9.804145	-0.000306	0.000593	-0.001465
01462	12845967	-0.157256	0.245363	-9.828494	-0.004487	0.001256	-0.004938
01463	12846017	-0.135833	0.221940	-9.815653	-0.003573	0.004254	0.000167
01464	12846067	-0.144467	0.222290	-9.817769	-0.002041	0.000913	-0.002131
01465	12846117	-0.147154	0.214793	-9.809843	-0.005624	0.005218	0.000017
01466	12846167	-0.172955	0.228331	-9.842789	-0.006738	0.001838	-0.000633
01467	12846217	-0.131763	0.199841	-9.821421	-0.005715	0.001887	-0.001152
01468	12846267	-0.138429	0.218113	-9.802702	-0.002775	-0.002321	-0.001634
01469	12846317	-0.160263	0.245982	-9.811946	-0.001772	0.000369	-0.004725
01470	12846367	-0.147908	0.236186	-9.792829	-0.005877	0.000013	-0.000687
01471	12846417	-0.150050	0.233004	-9.814147	-0.007343	0.003660	-0.004183
01472	12846467	-0.138946	0.213995	-9.810125	-0.004818	0.000837	-0.000619
01473	12846517	-0.125262	0.218498	-9.800370	-0.002404	0.001328	-0.002065
01474	12846567	-0.148489	0.220338	-9.811758	-0.005069	0.000840	0.002075
01475	12846617	-0.149973	0.229204	-9.822779	-0.004155	0.001977	-0.002404
01476	12846667	-0.149149	0.241766	-9.806725	-0.002227	-0.002312	-0.001118
01477	12846717	-0.121287	0.225018	-9.832265	-0.005540	0.001638	0.002625
01478	12846767	-0.144030	0.231538	-9.836228	-0.008502	0.001062	-0.000957
01479	12846817	-0.138814	0.242527	-9.814445	-0.004561	0.000680	-0.002414
01480	12846867	-0.152960	0.232849	-9.817967	-0.003517	0.000151	-0.000557
01481	12846917	-0.137695	0.214978	-9.831942	-0.003018	-0.001816	-0.003806
01482	12846967	-0.145280	0.226622	-9.805779	-0.002294	0.002949	-0.000487
01483	12847017	-0.134127	0.211348	-9.810146	-0.001022	0.001068	-0.000946
01484	12847067	-0.145301	0.227184	-9.821364	-0.005303	-0.002369	-0.002747
01485	12847117	-0.142753	0.240489	-9.805317	-0.005399	0.004153	-0.000950
01486	12847167	-0.129564	0.213004	-9.816887	-0.002657	0.003263	-0.001443
01487	12847217	-0.129814	0.216313	-9.816882	-0.001876	0.002594	-0.003663
01488	12847267	-0.137231	0.229675	-9.809424	-0.004602	-0.000934	-0.001846
01489	12847317	-0.126779	0.225366	-9.803717	-0.000239	-0.001538	-0.002476
01490	12847367	-0.153247	0.225658	-9.820601	-0.006249	0.001393	-0.001056
01491	12847417	-0.145317	0.230647	-9.816085	-0.005487	0.000661	-0.001542
01492	12847467	-0.140057	0.227322	-9.798617	-0.005724	0.002307	-0.000864
01493	12847517	-0.134439	0.214035	-9.814945	-0.001988	-0.001664	-0.000352
01494	12847567	-0.136140	0.216372	-9.806308	-0.005435	0.001349	0.000957
01495	12847617	-0.149170	0.219942	-9.787064	-0.004210	-0.000216	-0.001202
01496	12847667	-0.133243	0.241075	-9.791706	-0.005919	-0.000729	-0.000557
01497	12847717	-0.136786	0.234953	-9.823082	-0.006508	0.001548	-0.001602
01498	12847767	-0.146538	0.220727	-9.820637	-0.004383	0.003003	-0.003938
01499	12847817	-0.132209	0.207610	-9.837721	-0.003934	0.001879	-0.004880
01500	12847867	-0.131850	0.205523	-9.819264	-0.006367	0.002000	-0.004391
01501	12847917	-0.143675	0.205557	-9.825916	-0.001228	0.004348	-0.004806
01502	12847967	-0.145124	0.225251	-9.802905	-0.004694	0.000101	0.000088
01503	12848017	-0.149634	0.234518	-9.810793	-0.006039	0.002942	-0.002109
01504	12848067	-0.135191	0.215402	-9.807754	-0.004186	0.000010	-0.000915
01505	12848117	-0.139632	0.214599	-9.822826	-0.001644	-0.000493	-0.001144
01506	12848167	-0.150833	0.237384	-9.817017	-0.001387	0.002612	-0.001227
01507	12848217	-0.147123	0.221416	-9.806011	-0.004506	0.002171	-0.000641
01508	12848267	-0.137165	0.212083	-9.817802	-0.005814	0.001853	-0.001377
01509	12848317	-0.151056	0.247218	-9.801682	-0.005640	-0.000404	-0.001039
01510	12848367	-0.136673	0.225101	-9.814686	-0.006450	0.001977	-0.000063
01511	12848417	-0.138094	0.224601	-9.824036	-0.002015	-0.001817	0.001445
01512	12848467	-0.160153	0.258307	-9.808590	-0.003988	0.002080	-0.000773
01513	12848517	-0.145091	0.229370	-9.827117	-0.004413	-0.002325	-0.004638
01514	12848567	-0.139616	0.222718	-9.821866	-0.004136	0.002362	-0.004457
01515	12848617	-0.135986	0.212500	-9.818289	-0.003540	0.001021	0.000536
01516	12848667	-0.144997	0.215318	-9.797149	-0.002921	0.000352	-0.002675
01517	12848717	-0.130598	0.218699	-9.815198	-0.004143	0.002622	-0.002115
01518	12848767	-0.144485	0.228771	-9.797161	-0.007208	0.000241	-0.005003
01519	12848817	-0.121397	0.212375	-9.784322	-0.001541	0.001378	-0.001904
01520	12848867	-0.165559	0.228605	-9.811910	-0.002316	-0.000208	0.000723
01521	12848917	-0.149104	0.236502	-9.799298	-0.004849	0.001004	0.000316
01522	12848967	-0.148263	0.237967	-9.816555	-0.005841	-0.000247	-0.001036
01523	12849017	-0.132543	0.232222	-9.833409	-0.004295	0.003395	-0.002624
01524	12849067	-0.122744	0.205902	-9.839444	-0.003617	-0.001052	-0.004160
01525	12849117	-0.142669	0.226749	-9.811314	-0.003210	0.000513	0.000182
01526	12849167	-0.160101	0.221994	-9.799959	-0.000466	-0.002413	-0.001829
01527	12849217	-0.127625	0.211402	-9.797960	-0.005555	-0.002236	0.000554
01528	12849267	-0.125447	0.214643	-9.793178	-0.003539	0.001929	-0.000295
01529	12849317	-0.140164	0.213096	-9.811313	-0.006875	-0.000106	-0.003502
01530	12849367	-0.148405	0.226869	-9.789227	-0.006127	-0.002712	-0.004154
01531	12849417	-0.146209	0.226596	-9.821107	-0.008532	-0.002228	-0.000751
01532	12849467	-0.144613	0.229824	-9.826157	-0.004437	0.005044	-0.001396
01533	12849517	-0.123176	0.218084	-9.831302	-0.005105	-0.001464	-0.002906
01534	12849567	-0.147993	0.225966	-9.837163	-0.005690	0.000951	-0.001573
01535	12849617	-0.147697	0.232503	-9.815598	-0.004065	0.000339	0.000118
01536	12849667	-0.146059	0.217056	-9.816798	-0.004885	0.001767	-0.003080
01537	12849717	-0.124071	0.212160	-9.786234	-0.003241	0.000085	-0.005021
01538	12849767	-0.144413	0.216391	-9.779894	-0.005090	0.000316	-0.001197
01539	12849817	-0.152106	0.221789	-9.780576	-0.007592	0.001400	-0.003198
01540	12849867	-0.159091	0.225832	-9.783899	-0.000767	-0.002838	0.000317
01541	12849917	-0.140699	0.223770	-9.813233	-0.004181	0.000871	-0.000685
01542	12849967	-0.142133	0.229144	-9.812269	-0.004774	0.003117	-0.003518
01543	12850017	-0.139478	0.229025	-9.831691	-0.004946	0.001302	-0.005098
01544	12850067	-0.131379	0.233449	-9.822868	-0.004804	0.003279	-0.002978
01545	12850117	-0.148627	0.232062	-9.819185	-0.005096	0.001277	-0.001538
01546	12850167	-0.132570	0.222181	-9.822618	-0.007570	-0.000516	-0.003789
01547	12850217	-0.140171	0.214176	-9.804605	-0.006332	0.000700	-0.004648
01548	12850267	-0.133285	0.221893	-9.813991	-0.002614	0.001906	-0.000168
01549	12850317	-0.141831	0.197921	-9.800760	-0.004189	0.001939	-0.001317
01550	12850367	-0.143380	0.217647	-9.802673	-0.004969	-0.001626	0.000238
01551	12850417	-0.130016	0.205193	-9.805372	-0.000153	0.002043	0.000887
01552	12850467	-0.151029	0.245746	-9.807673	-0.000419	0.000933	-0.002934
01553	12850517	-0.141486	0.238084	-9.821378	-0.003159	0.002696	-0.002913
01554	12850567	-0.136694	0.235097	-9.819487	-0.005600	0.004170	-0.002068
01555	12850617	-0.134432	0.240810	-9.820225	-0.004175	0.000550	-0.001195
01556	12850667	-0.144639	0.230334	-9.807942	-0.005401	0.000883	-0.000580
01557	12850717	-0.145241	0.231588	-9.829752	-0.005491	0.001784	-0.000155
01558	12850767	-0.144206	0.222789	-9.829514	-0.004536	-0.001198	-0.000077
01559	12850817	-0.154899	0.234648	-9.824903	-0.003722	-0.001933	-0.003228
01560	12850867	-0.166562	0.220561	-9.815262	-0.002216	0.004161	-0.004286
01561	12850917	-0.144029	0.244567	-9.804107	-0.007939	0.004555	-0.000072
01562	12850967	-0.144744	0.239492	-9.805071	-0.005246	0.002047	-0.001956
01563	12851017	-0.142720	0.226762	-9.812030	-0.002459	-0.001161	-0.000054
01564	12851067	-0.147183	0.235907	-9.817026	-0.006617	0.005025	-0.002894
01565	12851117	-0.134773	0.215790	-9.831471	-0.003071	0.001287	0.001562
01566	12851167	-0.134671	0.222301	-9.819973	-0.004046	0.001591	0.001179
01567	12851217	-0.137582	0.225128	-9.827152	-0.002404	-0.000135	-0.003251
01568	12851267	-0.130307	0.216609	-9.818081	-0.004429	0.002416	-0.002594
01569	12851317	-0.123063	0.216804	-9.797020	-0.003386	0.001989	-0.000807
01570	12851367	-0.133236	0.232297	-9.807041	-0.004773	0.001215	-0.001445
01571	12851417	-0.150882	0.243351	-9.819654	-0.002465	0.001998	-0.003912
01572	12851467	-0.151399	0.230574	-9.821806	-0.001761	0.003111	-0.001120
01573	12851517	-0.142578	0.217191	-9.808425	-0.010142	0.001187	-0.000819
01574	12851567	-0.139225	0.218232	-9.803895	-0.008142	0.002575	-0.002491
01575	12851617	-0.138767	0.236049	-9.798625	-0.002376	0.003190	-0.003430
01576	12851667	-0.134689	0.225015	-9.826926	-0.006540	0.000643	0.000058
01577	12851717	-0.158605	0.233300	-9.831839	-0.004708	0.000214	-0.001769
01578	12851767	-0.154711	0.208946	-9.821072	-0.004368	0.001615	-0.000227
01579	12851817	-0.121508	0.215737	-9.814047	-0.006993	0.002630	-0.001592
01580	12851867	-0.137065	0.236756	-9.812060	-0.001691	0.001849	-0.001612
01581	12851917	-0.147338	0.230004	-9.798823	-0.001807	0.000529	-0.001294
01582	12851967	-0.135077	0.217243	-9.822126	-0.003130	0.001920	-0.001608
01583	12852017	-0.143928	0.228274	-9.800750	-0.003715	0.002138	-0.003076
01584	12852067	-0.139574	0.223009	-9.812284	-0.003316	-0.000537	-0.002357
01585	12852117	-0.146865	0.217632	-9.819437	-0.004780	-0.002424	0.001934
01586	12852167	-0.136640	0.215407	-9.806304	-0.003947	-0.000736	-0.000308
01587	12852217	-0.148336	0.225090	-9.812000	-0.004394	0.001486	-0.001223
01588	12852267	-0.138311	0.243681	-9.806302	0.001192	0.002972	-0.000365
01589	12852317	-0.153509	0.230086	-9.804067	-0.004171	-0.001614	-0.000821
01590	12852367	-0.160324	0.231034	-9.808822	-0.004135	0.001459	-0.000258
01591	12852417	-0.154691	0.222991	-9.820827	-0.004843	0.000507	-0.000551
01592	12852467	-0.136292	0.221592	-9.826435	-0.002379	0.002390	-0.001157
01593	12852517	-0.145712	0.235459	-9.824712	-0.003636	0.002620	-0.002724
01594	12852567	-0.121097	0.216414	-9.814528	-0.003469	0.001567	-0.000392
01595	12852617	-0.121483	0.231307	-9.821722	-0.006203	-0.001132	-0.000081
01596	12852667	-0.130091	0.220541	-9.831502	-0.002991	0.002240	-0.004617
01597	12852717	-0.142458	0.229683	-9.811790	-0.004729	0.001062	0.000378
01598	12852767	-0.155420	0.238304	-9.818674	-0.002024	0.000597	0.002712
01599	12852817	-0.137065	0.222201	-9.816599	-0.004853	0.001764	-0.001798
01600	12852867	-0.144947	0.214281	-9.803386	-0.004665	0.001193	0.002243
01601	12852917	-0.155000	0.236656	-9.812927	-0.005323	-0.002732	-0.001818
01602	12852967	-0.123152	0.212321	-9.810205	-0.005531	0.004073	-0.001749
01603	12853017	-0.140880	0.237235	-9.817791	-0.001592	-0.000443	-0.004766
01604	12853067	-0.137139	0.220335	-9.808213	-0.008995	0.000372	0.000614
01605	12853117	-0.147568	0.225373	-9.824465	0.000816	0.000610	0.000205
01606	12853167	-0.133989	0.222177	-9.827645	-0.005346	-0.000662	0.001206
01607	12853217	-0.146551	0.219041	-9.825184	-0.000710	-0.000205	-0.005823
01608	12853267	-0.167707	0.228758	-9.810940	-0.000453	0.000494	0.001201
01609	12853317	-0.139339	0.230038	-9.816350	-0.005947	0.001777	-0.002720
01610	12853367	-0.148200	0.231020	-9.800261	-0.003338	0.002635	0.000867
01611	12853417	-0.136185	0.222398	-9.804147	-0.002022	0.002527	0.000025
01612	12853467	-0.144598	0.234025	-9.815855	-0.006601	0.000506	-0.000487
01613	12853517	-0.138053	0.226380	-9.815644	-0.002889	0.003313	-0.002210
01614	12853567	-0.138811	0.232154	-9.820194	-0.004046	0.002719	-0.000451
01615	12853617	-0.143634	0.252280	-9.820896	-0.002710	0.000968	0.001945
01616	12853667	-0.146091	0.234882	-9.811534	-0.005238	0.002791	-0.002266
01617	12853717	-0.150669	0.221197	-9.810545	-0.005216	0.002977	-0.003708
01618	12853767	-0.143894	0.235535	-9.814411	-0.000556	0.003091	-0.006157
01619	12853817	-0.120939	0.218101	-9.830586	-0.005651	0.004048	0.002352
01620	12853867	-0.127078	0.208404	-9.826241	-0.003492	0.000013	-0.001203
01621	12853917	-0.137503	0.219023	-9.823549	-0.008123	0.001101	0.000296
01622	12853967	-0.127572	0.223176	-9.813298	-0.002865	0.001411	-0.003245
01623	12854017	-0.137236	0.221784	-9.810372	-0.002162	-0.003648	-0.002248
01624	12854067	-0.137266	0.218960	-9.819236	-0.004451	0.002423	0.001863
01625	12854117	-0.146205	0.211664	-9.811761	-0.007228	0.003047	-0.001106
01626	12854167	-0.144907	0.208813	-9.828305	-0.006364	0.003260	-0.000020
01627	12854217	-0.132867	0.228819	-9.816631	-0.001148	0.001891	-0.002192
01628	12854267	-0.132484	0.216548	-9.813754	-0.002842	0.001701	-0.004045
01629	12854317	-0.134506	0.214819	-9.808948	-0.006268	-0.001235	-0.002481
01630	12854367	-0.125357	0.235527	-9.830331	-0.002603	-0.001913	-0.003488
01631	12854417	-0.154280	0.232323	-9.826590	-0.004103	0.002424	-0.001342
01632	12854467	-0.133017	0.231311	-9.805363	-0.005072	-0.000434	-0.001616
01633	12854517	-0.142785	0.239133	-9.810832	-0.005222	0.002074	-0.003555
01634	12854567	-0.128676	0.213969	-9.805620	-0.001868	0.003564	-0.000576
01635	12854617	-0.132298	0.227671	-9.804173	0.000007	-0.001312	-0.001572
01636	12854667	-0.136392	0.202675	-9.812768	-0.003292	0.002217	0.001378
01637	12854717	-0.135674	0.207295	-9.821647	-0.002513	0.001217	-0.003665
01638	12854767	-0.143800	0.224476	-9.810098	-0.005239	0.003757	-0.002486
01639	12854817	-0.136117	0.235637	-9.811340	-0.005265	0.000565	-0.001159
01640	12854867	-0.129229	0.229795	-9.830548	-0.002844	0.000831	-0.000750
01641	12854917	-0.153046	0.239656	-9.807661	-0.003292	0.000823	-0.003693
01642	12854967	-0.143005	0.218536	-9.821134	-0.001410	0.000953	-0.002932
