PacketCounter	SampleTimeFine	Acc_X	Acc_Y	Acc_Z	Gyr_X	Gyr_Y	Gyr_Z
00001	13938867	-0.113531	0.211959	-9.817544	-0.004430	0.001722	0.000086
00002	13938917	-0.129818	0.207929	-9.819138	-0.003445	0.004867	-0.002147
00003	13938967	-0.138289	0.225533	-9.845222	-0.002590	0.002073	-0.001906
00004	13939017	-0.120173	0.212714	-9.842916	-0.005849	-0.001980	0.001737
00005	13939067	-0.143712	0.222722	-9.814514	-0.005069	0.000610	-0.002158
00006	13939117	-0.122813	0.207742	-9.817256	-0.001547	0.000121	-0.004386
00007	13939167	-0.118407	0.235122	-9.804353	-0.001635	0.002319	-0.001618
00008	13939217	-0.123872	0.218810	-9.808389	-0.004476	0.003406	0.002404
00009	13939267	-0.111613	0.232163	-9.805335	-0.004125	-0.001723	0.001606
00010	13939317	-0.119735	0.225967	-9.820875	-0.005500	-0.002439	-0.005189
00011	13939367	-0.144994	0.246097	-9.809959	-0.005755	0.000987	-0.001033
00012	13939417	-0.126296	0.200768	-9.805258	-0.008092	0.002944	-0.002526
00013	13939467	-0.122766	0.221701	-9.809832	-0.006244	0.000101	-0.003189
00014	13939517	-0.141811	0.234437	-9.802073	-0.005700	-0.002119	-0.005862
00015	13939567	-0.162688	0.245322	-9.826422	-0.002860	0.001947	0.001111
00016	13939617	-0.135875	0.220675	-9.814318	-0.005679	-0.000204	0.001011
00017	13939667	-0.143015	0.235555	-9.800141	-0.007101	-0.000580	0.001845
00018	13939717	-0.125234	0.230210	-9.813663	-0.002277	0.000209	-0.001977
00019	13939767	-0.183014	0.247721	-9.796349	-0.004335	-0.001049	0.002093
00020	13939817	-0.146057	0.220479	-9.810680	-0.004785	0.002288	-0.005642
00021	13939867	-0.157322	0.235396	-9.801993	-0.004561	-0.000388	-0.003191
00022	13939917	-0.149961	0.225028	-9.803463	-0.004619	0.002716	-0.001059
00023	13939967	-0.141044	0.208229	-9.814050	-0.005037	0.004742	-0.001593
00024	13940017	-0.144858	0.224257	-9.826019	-0.004233	0.000132	-0.005046
00025	13940067	-0.154639	0.219702	-9.817100	-0.003041	-0.000940	-0.004288
00026	13940117	-0.149104	0.225356	-9.837260	-0.004428	0.001491	-0.001993
00027	13940167	-0.154262	0.229294	-9.810876	-0.001749	0.001629	-0.003956
00028	13940217	-0.134863	0.203577	-9.819837	-0.001642	0.000508	-0.002684
00029	13940267	-0.147642	0.216943	-9.785017	-0.002233	0.000181	0.000972
00030	13940317	-0.149204	0.228228	-9.800354	-0.001547	-0.002524	-0.001383
00031	13940367	-0.125661	0.206316	-9.831382	-0.005209	0.003126	-0.001699
00032	13940417	-0.134903	0.209509	-9.830381	-0.003642	0.000054	-0.001398
00033	13940467	-0.113630	0.214900	-9.824497	-0.005774	-0.001603	-0.004254
00034	13940517	-0.120448	0.199660	-9.812235	-0.005773	0.003990	0.000198
00035	13940567	-0.122194	0.218920	-9.823976	-0.000661	0.000522	-0.003900
00036	13940617	-0.106662	0.234050	-9.814711	-0.003061	0.000839	-0.002424
00037	13940667	-0.126260	0.227851	-9.804066	-0.001851	-0.002177	-0.002473
00038	13940717	-0.125678	0.219401	-9.819165	-0.001624	0.004224	-0.000704
00039	13940767	-0.130241	0.216294	-9.810275	-0.000095	0.003217	-0.002158
00040	13940817	-0.124431	0.209841	-9.812458	-0.004230	0.004728	0.001033
00041	13940867	-0.129065	0.223093	-9.816267	-0.004141	0.005052	0.000811
00042	13940917	-0.142828	0.230672	-9.810452	-0.003783	0.002409	-0.002695
00043	13940967	-0.149241	0.218834	-9.801552	-0.004525	-0.000343	0.000755
00044	13941017	-0.145226	0.230736	-9.815230	-0.005449	0.000903	0.002751
00045	13941067	-0.132855	0.225326	-9.817452	-0.008503	-0.000772	0.001178
00046	13941117	-0.140343	0.225366	-9.830592	-0.004811	-0.000685	-0.003545
00047	13941167	-0.137361	0.246093	-9.834206	-0.005783	0.004081	-0.002459
00048	13941217	-0.151125	0.235135	-9.795798	-0.004567	0.000007	-0.001105
00049	13941267	-0.115865	0.223475	-9.813943	-0.003655	0.000507	-0.000657
00050	13941317	-0.142681	0.219671	-9.817161	-0.005064	0.001878	0.001629
00051	13941367	-0.150158	0.224052	-9.834376	-0.002331	0.003880	-0.005415
00052	13941417	-0.159430	0.222504	-9.807489	-0.001731	0.002580	0.001337
00053	13941467	-0.143845	0.213529	-9.809004	-0.003006	0.001062	-0.002996
00054	13941517	-0.139659	0.240057	-9.815984	-0.003894	0.000788	-0.002831
00055	13941567	-0.154947	0.232646	-9.811592	-0.004353	0.005199	-0.005691
00056	13941617	-0.167328	0.228438	-9.808890	-0.003108	0.002451	-0.001254
00057	13941667	-0.145986	0.214297	-9.808752	-0.005335	0.003792	-0.005892
00058	13941717	-0.137943	0.224459	-9.818146	-0.005127	-0.000752	-0.003832
00059	13941767	-0.140598	0.221610	-9.805190	-0.003328	0.003484	-0.000768
00060	13941817	-0.131468	0.232771	-9.829683	-0.004556	0.003947	-0.000732
00061	13941867	-0.140391	0.226432	-9.812382	-0.002905	0.004067	-0.003074
00062	13941917	-0.140090	0.235906	-9.807834	-0.005023	0.001223	-0.001997
00063	13941967	-0.131144	0.221811	-9.813154	-0.002906	-0.001969	-0.001186
00064	13942017	-0.131887	0.214081	-9.820804	-0.002593	0.001302	-0.000818
00065	13942067	-0.144209	0.222942	-9.803010	-0.004517	0.002626	-0.000384
00066	13942117	-0.133003	0.218092	-9.795160	-0.000934	0.002290	-0.003445
00067	13942167	-0.125240	0.222680	-9.826596	-0.006557	0.002363	0.000448
00068	13942217	-0.131693	0.236247	-9.828484	-0.003703	-0.001014	-0.002043
00069	13942267	-0.129927	0.214182	-9.823693	-0.002681	0.003041	-0.000740
00070	13942317	-0.125652	0.226135	-9.817490	-0.008735	0.000352	0.000286
00071	13942367	-0.137535	0.207844	-9.814306	-0.006485	0.001773	-0.003494
00072	13942417	-0.138586	0.218612	-9.823892	-0.004130	0.000107	-0.001876
00073	13942467	-0.133647	0.225193	-9.826070	-0.007804	0.002309	-0.000637
00074	13942517	-0.139234	0.220951	-9.806877	-0.004555	-0.000217	0.000878
00075	13942567	-0.111608	0.217392	-9.825221	-0.009118	0.004414	-0.000013
00076	13942617	-0.135823	0.233316	-9.831337	-0.007639	0.003278	0.001036
00077	13942667	-0.129253	0.232927	-9.815311	-0.008264	0.002914	0.001291
00078	13942717	-0.127259	0.224013	-9.810521	-0.006671	0.001939	-0.000099
00079	13942767	-0.152019	0.237602	-9.835097	-0.006240	0.002529	0.000738
00080	13942817	-0.131867	0.210300	-9.815534	-0.007524	0.000307	-0.001127
00081	13942867	-0.144037	0.224775	-9.806132	-0.006910	0.001518	0.001381
00082	13942917	-0.130482	0.231905	-9.815551	-0.006772	0.000770	-0.001448
00083	13942967	-0.120356	0.222031	-9.812960	-0.005778	0.001725	-0.001062
00084	13943017	-0.146039	0.223023	-9.809237	-0.003012	0.002485	-0.002025
00085	13943067	-0.155161	0.246503	-9.831243	-0.004479	0.001268	-0.001098
00086	13943117	-0.130846	0.227643	-9.824408	-0.001033	0.001885	0.003032
00087	13943167	-0.135257	0.220121	-9.821032	-0.008076	0.001718	-0.001889
00088	13943217	-0.123861	0.225426	-9.823725	-0.005515	0.002799	0.000418
00089	13943267	-0.147737	0.237775	-9.815701	-0.003538	0.000630	-0.004050
00090	13943317	-0.125820	0.224238	-9.820122	-0.005481	0.000670	0.001465
00091	13943367	-0.152555	0.217904	-9.806570	-0.002031	-0.001369	-0.000832
00092	13943417	-0.143850	0.213328	-9.811164	-0.004510	0.001400	-0.000138
00093	13943467	-0.137847	0.229672	-9.818625	-0.003730	0.000990	0.000180
00094	13943517	-0.146227	0.219257	-9.814506	-0.003920	0.001797	-0.000969
00095	13943567	-0.134265	0.232163	-9.822243	-0.004391	0.000754	0.000662
00096	13943617	-0.144077	0.229390	-9.802055	-0.005444	0.001543	-0.000135
00097	13943667	-0.127962	0.207556	-9.820109	-0.006290	0.002814	-0.003490
00098	13943717	-0.133303	0.234143	-9.810740	-0.005191	0.003809	0.001094
00099	13943767	-0.135996	0.222339	-9.813601	-0.006559	0.004227	-0.003194
00100	13943817	-0.128915	0.220474	-9.808127	-0.001685	0.002094	-0.000048
00101	13943867	-0.130107	0.211990	-9.802370	-0.004914	-0.000326	-0.002486
00102	13943917	-0.136779	0.242889	-9.820067	-0.006232	0.000744	-0.004333
00103	13943967	-0.139515	0.235703	-9.826529	-0.004106	0.001298	-0.005233
00104	13944017	-0.135118	0.226765	-9.794678	-0.005589	-0.000077	-0.001165
00105	13944067	-0.135717	0.218409	-9.792515	-0.005400	-0.000813	0.001102
00106	13944117	-0.129046	0.232883	-9.818432	-0.003897	0.001786	-0.004461
00107	13944167	-0.140933	0.224637	-9.799435	-0.004948	0.002000	-0.001287
00108	13944217	-0.123105	0.228656	-9.801930	-0.005040	0.001772	-0.002221
00109	13944267	-0.151836	0.225215	-9.806332	-0.001603	0.002482	-0.001035
00110	13944317	-0.148332	0.237592	-9.798208	-0.005870	0.000922	-0.000422
00111	13944367	-0.127601	0.233440	-9.813169	-0.001626	0.002185	-0.000970
00112	13944417	-0.134340	0.237326	-9.822480	-0.002135	0.001179	0.000597
00113	13944467	-0.135384	0.251624	-9.798513	-0.002276	0.000432	-0.001398
00114	13944517	-0.125239	0.229088	-9.817251	-0.003572	-0.000302	-0.002585
00115	13944567	-0.124126	0.230041	-9.801925	-0.002708	-0.000088	0.000332
00116	13944617	-0.134889	0.231693	-9.806420	-0.004634	-0.001035	-0.001910
00117	13944667	-0.160813	0.232289	-9.807726	-0.003543	-0.000612	0.004211
00118	13944717	-0.140575	0.225565	-9.820763	-0.009954	0.001495	-0.000187
00119	13944767	-0.154001	0.200348	-9.825725	-0.001868	0.002568	-0.002795
00120	13944817	-0.146149	0.219939	-9.812832	-0.002594	-0.001930	-0.002016
00121	13944867	-0.139894	0.217576	-9.816216	-0.005722	0.007445	-0.001127
00122	13944917	-0.149410	0.224342	-9.820005	-0.004388	0.001399	-0.001096
00123	13944967	-0.136959	0.222368	-9.804965	-0.004853	-0.003067	0.000479
00124	13945017	-0.133409	0.213035	-9.815532	-0.003478	-0.000142	-0.002453
00125	13945067	-0.136635	0.223681	-9.801614	-0.002576	0.001818	-0.001357
00126	13945117	-0.144901	0.247613	-9.818355	-0.004840	0.001584	-0.000519
00127	13945167	-0.130334	0.220030	-9.817463	-0.003310	0.000773	-0.002035
00128	13945217	-0.147980	0.226276	-9.813542	-0.001937	0.002925	-0.001992
00129	13945267	-0.128673	0.234179	-9.809087	-0.004870	-0.000615	-0.001783
00130	13945317	-0.131928	0.231905	-9.788455	-0.005429	0.004321	0.001229
00131	13945367	-0.150460	0.233925	-9.798195	-0.003380	-0.002100	0.000615
00132	13945417	-0.135177	0.241264	-9.816730	-0.002417	-0.001378	-0.001630
00133	13945467	-0.127457	0.238781	-9.820841	-0.000891	-0.000028	-0.002079
00134	13945517	-0.133687	0.245579	-9.816250	-0.004727	0.003103	-0.001217
00135	13945567	-0.142258	0.241589	-9.806864	-0.005741	0.002052	0.000674
00136	13945617	-0.130610	0.243673	-9.816747	-0.001191	0.001648	-0.000974
00137	13945667	-0.144833	0.237407	-9.809969	-0.000731	0.001240	-0.000051
00138	13945717	-0.144545	0.234217	-9.812845	-0.002382	0.002018	0.001465
00139	13945767	-0.145117	0.225580	-9.791032	-0.003936	-0.000756	-0.000209
00140	13945817	-0.122896	0.221101	-9.823971	-0.001191	0.000651	0.000428
00141	13945867	-0.132745	0.219513	-9.813620	-0.005484	-0.000264	0.000275
00142	13945917	-0.129787	0.217160	-9.822022	-0.001197	0.000314	-0.004514
00143	13945967	-0.141030	0.235173	-9.811180	-0.001472	0.000422	0.000682
00144	13946017	-0.135996	0.222225	-9.821022	-0.007825	0.001852	-0.001793
00145	13946067	-0.156026	0.236977	-9.819494	-0.003012	-0.000388	0.000653
00146	13946117	-0.146698	0.225267	-9.819305	-0.004272	0.003950	0.000419
00147	13946167	-0.134412	0.219849	-9.808329	-0.002804	0.001073	-0.000466
00148	13946217	-0.141259	0.227571	-9.825797	-0.003701	0.002021	-0.002253
00149	13946267	-0.145376	0.220732	-9.814754	-0.002714	-0.000998	-0.001116
00150	13946317	-0.146968	0.221325	-9.821220	-0.004589	0.000585	-0.003316
00151	13946367	-0.152152	0.237265	-9.815201	-0.002641	0.003176	0.002210
00152	13946417	-0.150576	0.208156	-9.817122	-0.004427	0.003226	-0.006727
00153	13946467	-0.138734	0.216755	-9.798487	-0.001304	-0.000032	-0.001626
00154	13946517	-0.143190	0.236167	-9.814526	-0.002745	0.000039	-0.001109
00155	13946567	-0.155193	0.230480	-9.816378	0.000966	0.003169	-0.000752
00156	13946617	-0.137342	0.231379	-9.821269	-0.003757	0.000468	-0.003573
00157	13946667	-0.130274	0.222241	-9.809792	-0.004643	0.004458	-0.000922
00158	13946717	-0.134588	0.228526	-9.807146	-0.000068	-0.000887	-0.002791
00159	13946767	-0.156906	0.223012	-9.805346	-0.002886	0.000451	-0.002772
00160	13946817	-0.151282	0.239576	-9.793395	-0.004813	-0.001750	-0.005310
00161	13946867	-0.130238	0.228151	-9.806445	-0.003774	0.002480	0.000957
00162	13946917	-0.123261	0.239744	-9.804810	0.000012	-0.000113	-0.002752
00163	13946967	-0.131987	0.230483	-9.803319	-0.004078	0.001496	-0.002799
00164	13947017	-0.127698	0.233135	-9.804779	-0.003305	0.000642	-0.000626
00165	13947067	-0.145197	0.233200	-9.821940	-0.001459	0.000735	-0.002582
00166	13947117	-0.138057	0.237286	-9.789630	-0.004751	0.000945	0.001110
00167	13947167	-0.133854	0.235635	-9.815767	-0.003598	0.001734	-0.001164
00168	13947217	-0.137661	0.245077	-9.812643	-0.006095	-0.002311	0.000038
00169	13947267	-0.135791	0.218631	-9.807131	-0.005178	0.002123	-0.001832
00170	13947317	-0.149000	0.225114	-9.813539	-0.001343	0.001222	-0.002518
00171	13947367	-0.122172	0.227870	-9.813196	-0.002518	-0.000854	0.001708
00172	13947417	-0.135835	0.214941	-9.793474	-0.000501	0.001915	-0.001589
00173	13947467	-0.132931	0.222261	-9.797565	-0.003310	-0.001135	0.001132
00174	13947517	-0.130925	0.236115	-9.817221	-0.002141	0.002244	-0.002832
00175	13947567	-0.139676	0.203427	-9.813099	-0.003340	0.000246	-0.004181
00176	13947617	-0.127116	0.207751	-9.820357	-0.003163	-0.000972	-0.001021
00177	13947667	-0.145458	0.220252	-9.816189	-0.000302	0.004564	-0.004585
00178	13947717	-0.139087	0.235386	-9.817184	-0.005307	0.000955	-0.003210
00179	13947767	-0.139444	0.234389	-9.816708	-0.005143	0.004360	0.001421
00180	13947817	-0.132554	0.226389	-9.816736	-0.004037	0.002630	-0.000294
00181	13947867	-0.155293	0.249961	-9.805603	-0.005310	0.001318	-0.001350
00182	13947917	-0.142614	0.242158	-9.804228	-0.002591	-0.001802	-0.001410
00183	13947967	-0.130648	0.229961	-9.804279	-0.001682	0.003930	-0.001829
00184	13948017	-0.139555	0.225144	-9.799682	-0.004055	0.000819	-0.002351
00185	13948067	-0.140146	0.221405	-9.796082	-0.001705	0.002542	-0.002895
00186	13948117	-0.141345	0.195868	-9.816680	-0.001870	0.005061	0.000964
00187	13948167	-0.139716	0.208844	-9.820525	-0.004659	-0.002327	-0.002978
00188	13948217	-0.147529	0.202545	-9.816416	-0.005084	-0.000709	0.000174
00189	13948267	-0.140418	0.196037	-9.797511	-0.001781	-0.001238	-0.001600
00190	13948317	-0.141296	0.226569	-9.804468	-0.005738	-0.001404	-0.000214
00191	13948367	-0.138721	0.230855	-9.829643	-0.007212	0.000569	-0.001608
00192	13948417	-0.120474	0.239042	-9.827826	-0.004152	0.001179	-0.000814
00193	13948467	-0.139704	0.226649	-9.810703	-0.001588	0.002230	0.001110
00194	13948517	-0.146550	0.242356	-9.822180	-0.002614	0.000143	0.001556
00195	13948567	-0.131542	0.237236	-9.812912	-0.003438	-0.000627	-0.003772
00196	13948617	-0.145522	0.232631	-9.799654	-0.004052	0.002016	-0.001898
00197	13948667	-0.128172	0.220908	-9.813638	-0.004140	0.002123	0.002718
00198	13948717	-0.145517	0.221790	-9.822659	-0.003287	0.001959	-0.002410
00199	13948767	-0.141096	0.227466	-9.815970	-0.003183	0.000772	-0.001650
00200	13948817	-0.149754	0.219538	-9.799872	-0.004485	-0.000668	-0.001425
00201	13948867	-0.140770	0.217844	-9.824127	-0.002982	0.000489	-0.000142
00202	13948917	-0.155813	0.243503	-9.815902	-0.007903	0.002565	0.001034
00203	13948967	-0.139035	0.241842	-9.808315	-0.003657	-0.001827	-0.004738
00204	13949017	-0.141372	0.220352	-9.802551	-0.003369	0.000340	-0.004891
00205	13949067	-0.130174	0.218022	-9.809324	-0.002758	-0.001004	-0.004642
00206	13949117	-0.131609	0.208686	-9.803560	-0.005478	0.002508	-0.002597
00207	13949167	-0.142602	0.226332	-9.809731	-0.001407	0.000031	-0.003234
00208	13949217	-0.145218	0.207219	-9.814274	-0.004688	-0.001352	-0.000983
00209	13949267	-0.154382	0.222000	-9.811584	-0.002725	0.002528	-0.000198
00210	13949317	-0.133844	0.224962	-9.817447	-0.004291	0.004627	-0.000729
00211	13949367	-0.130843	0.219052	-9.814585	-0.004792	-0.000195	-0.002901
00212	13949417	-0.147382	0.212142	-9.815696	-0.002040	0.002084	-0.000361
00213	13949467	-0.134728	0.222433	-9.802580	-0.006672	-0.000224	-0.001294
00214	13949517	-0.135973	0.213178	-9.813126	-0.001068	0.000389	-0.001976
00215	13949567	-0.137929	0.221775	-9.812391	-0.005079	0.002865	-0.003301
00216	13949617	-0.129810	0.225404	-9.827294	-0.005963	0.001659	-0.001384
00217	13949667	-0.135261	0.215904	-9.815762	-0.003456	0.000419	0.001360
00218	13949717	-0.161247	0.234823	-9.818270	-0.004954	-0.001071	-0.002650
00219	13949767	-0.146559	0.228781	-9.793658	-0.006454	0.001100	-0.002121
00220	13949817	-0.142230	0.226221	-9.812610	-0.005282	0.003511	-0.002017
00221	13949867	-0.135440	0.217448	-9.823426	-0.002620	0.003631	0.003789
00222	13949917	-0.138111	0.211705	-9.790344	-0.005733	0.003634	-0.000819
00223	13949967	-0.117008	0.207298	-9.783977	-0.001087	0.002162	-0.001512
00224	13950017	-0.138452	0.235161	-9.809520	-0.002277	-0.000862	-0.002580
00225	13950067	-0.144337	0.225774	-9.801334	-0.002947	0.000296	-0.000714
00226	13950117	-0.138676	0.243253	-9.824857	-0.003713	0.000081	-0.001035
00227	13950167	-0.130329	0.223605	-9.818668	-0.002884	0.002094	-0.002275
00228	13950217	-0.137794	0.222902	-9.825095	-0.004533	0.004110	0.000145
00229	13950267	-0.151089	0.243916	-9.814724	-0.002823	0.003191	-0.004991
00230	13950317	-0.140377	0.215211	-9.804470	-0.005220	-0.001809	-0.000592
00231	13950367	-0.120326	0.221481	-9.810561	-0.005607	0.002336	-0.002365
00232	13950417	-0.125994	0.215531	-9.817009	-0.003409	0.001767	-0.000191
00233	13950467	-0.143300	0.235083	-9.817873	-0.006159	0.002719	-0.000951
00234	13950517	-0.146879	0.227541	-9.806604	-0.006711	0.000967	-0.001089
00235	13950567	-0.137006	0.218389	-9.809766	-0.003462	0.001283	-0.001861
00236	13950617	-0.130919	0.205813	-9.809546	-0.002109	0.000947	-0.002827
00237	13950667	-0.133739	0.237459	-9.814097	-0.004398	-0.000250	0.000539
00238	13950717	-0.127881	0.218710	-9.828978	-0.001125	-0.000574	0.001387
00239	13950767	-0.132283	0.223254	-9.815294	-0.003541	0.000763	-0.000711
00240	13950817	-0.149918	0.247519	-9.800355	-0.003661	0.004765	-0.002290
00241	13950867	-0.138444	0.226749	-9.825568	-0.006266	0.002043	-0.000951
00242	13950917	-0.121401	0.214574	-9.813915	-0.002757	0.003359	-0.000990
00243	13950967	-0.145506	0.232599	-9.814274	-0.003895	-0.000342	-0.002991
00244	13951017	-0.134359	0.211624	-9.812887	-0.004724	-0.002193	0.000042
00245	13951067	-0.153360	0.234692	-9.816154	-0.005333	0.000928	-0.001346
00246	13951117	-0.133255	0.228896	-9.820329	-0.004888	0.001507	-0.005221
00247	13951167	-0.119134	0.221244	-9.820635	-0.006258	0.001881	0.000456
00248	13951217	-0.154562	0.233751	-9.812068	-0.007439	0.000726	-0.000697
00249	13951267	-0.151934	0.230378	-9.813045	-0.006405	0.000162	-0.002820
00250	13951317	-0.134261	0.207326	-9.816484	-0.001773	0.000275	-0.004020
00251	13951367	-0.154708	0.236202	-9.812561	-0.002847	-0.002299	-0.004506
00252	13951417	-0.124665	0.209008	-9.817970	0.001262	0.001820	0.000819
00253	13951467	-0.125017	0.214773	-9.795200	-0.003875	0.004538	0.000269
00254	13951517	-0.138130	0.229559	-9.809992	-0.002753	0.001134	-0.002377
00255	13951567	-0.137773	0.234503	-9.798018	-0.002600	0.000456	-0.000843
00256	13951617	-0.134914	0.221927	-9.806416	-0.003804	0.000248	0.000601
00257	13951667	-0.127759	0.221426	-9.821547	-0.006967	-0.001466	-0.003021
00258	13951717	-0.120325	0.228394	-9.827816	-0.005882	0.002917	-0.002009
00259	13951767	-0.127725	0.210622	-9.822749	-0.004325	0.001206	-0.001442
00260	13951817	-0.132718	0.223272	-9.814819	-0.005664	0.001210	-0.001731
00261	13951867	-0.135065	0.229020	-9.805456	-0.001858	-0.000920	-0.001717
00262	13951917	-0.157265	0.227961	-9.803193	-0.002211	-0.002058	-0.003198
00263	13951967	-0.120620	0.220777	-9.799777	-0.003424	0.001986	-0.004105
00264	13952017	-0.138382	0.220406	-9.802085	-0.003869	0.005542	0.001112
00265	13952067	-0.140368	0.226113	-9.793453	-0.000203	-0.002603	-0.002020
00266	13952117	-0.130808	0.229503	-9.800925	-0.003928	0.000524	-0.004333
00267	13952167	-0.146691	0.229410	-9.807322	-0.004498	0.000451	-0.004043
00268	13952217	-0.130029	0.209742	-9.813148	-0.004127	-0.001088	-0.001969
00269	13952267	-0.144086	0.222394	-9.830819	-0.001961	0.000501	-0.000011
00270	13952317	-0.120390	0.227373	-9.813682	-0.000767	0.001908	-0.002830
00271	13952367	-0.143626	0.234232	-9.809490	-0.004598	0.000842	-0.001702
00272	13952417	-0.116435	0.228728	-9.814901	-0.004328	-0.000834	-0.002161
00273	13952467	-0.137881	0.221240	-9.814073	-0.002043	0.005180	-0.001845
00274	13952517	-0.132476	0.230972	-9.800676	-0.006858	0.000547	-0.000539
00275	13952567	-0.136559	0.232290	-9.801619	-0.005517	0.000402	-0.002021
00276	13952617	-0.130363	0.202574	-9.820812	-0.003608	0.000831	-0.001574
00277	13952667	-0.141520	0.226732	-9.796319	-0.005250	-0.000687	-0.000554
00278	13952717	-0.153208	0.228105	-9.795065	-0.002565	-0.000669	-0.001329
00279	13952767	-0.148779	0.234226	-9.830313	-0.004806	0.000352	-0.000933
00280	13952817	-0.164024	0.241126	-9.809628	-0.004896	-0.000676	0.000603
00281	13952867	-0.135148	0.229422	-9.830143	-0.005268	-0.000498	-0.002378
00282	13952917	-0.147175	0.243783	-9.817384	-0.004323	0.003295	-0.002491
00283	13952967	-0.145860	0.219721	-9.799890	-0.001654	0.001958	-0.000734
00284	13953017	-0.132410	0.228482	-9.812901	-0.002780	-0.003292	-0.002821
00285	13953067	-0.146974	0.239035	-9.822184	-0.000618	0.000558	-0.001490
00286	13953117	-0.140759	0.228663	-9.803275	-0.003351	0.000926	-0.001480
00287	13953167	-0.121072	0.215228	-9.801455	-0.005846	-0.000180	-0.001290
00288	13953217	-0.153505	0.227805	-9.790505	-0.001840	-0.000671	-0.004853
00289	13953267	-0.145229	0.221947	-9.800378	-0.003522	-0.000883	-0.002098
00290	13953317	-0.138797	0.231261	-9.815749	-0.004864	0.002159	-0.001404
00291	13953367	-0.134875	0.230493	-9.793001	-0.002171	-0.000052	-0.002192
00292	13953417	-0.131779	0.219734	-9.811460	-0.005493	0.002730	-0.002680
00293	13953467	-0.139572	0.240636	-9.826527	-0.004512	0.000933	-0.004072
00294	13953517	-0.135425	0.211921	-9.823190	-0.002151	0.001497	-0.000066
00295	13953567	-0.151880	0.228924	-9.825027	-0.006484	-0.001451	-0.001899
00296	13953617	-0.127614	0.197034	-9.817947	-0.002550	0.003848	-0.001534
00297	13953667	-0.145182	0.221223	-9.792464	-0.006501	0.003292	-0.003348
00298	13953717	-0.135537	0.219821	-9.821269	-0.004726	0.002940	-0.000728
00299	13953767	-0.140552	0.229175	-9.803756	-0.005067	-0.001586	-0.000845
00300	13953817	-0.140814	0.234915	-9.807829	-0.002727	-0.000379	0.002195
00301	13953867	-0.129157	0.220777	-9.810281	-0.001363	0.000869	0.000279
00302	13953917	-0.136292	0.245805	-9.815037	-0.005830	0.004433	-0.002994
00303	13953967	-0.151943	0.233167	-9.808494	-0.003909	0.002076	-0.004292
00304	13954017	-0.132516	0.218211	-9.809785	-0.003455	-0.000310	-0.005045
00305	13954067	-0.127657	0.217983	-9.812201	-0.008237	0.003749	-0.001451
00306	13954117	-0.145028	0.235482	-9.826263	-0.008219	-0.000999	-0.002280
00307	13954167	-0.124262	0.220758	-9.795204	-0.006118	0.002364	-0.002557
00308	13954217	-0.139593	0.234231	-9.789618	-0.006484	0.004743	-0.004753
00309	13954267	-0.134827	0.243256	-9.818161	-0.004870	0.002651	0.001484
00310	13954317	-0.142274	0.229732	-9.793917	-0.004578	-0.000441	0.002269
00311	13954367	-0.130369	0.217938	-9.801887	-0.006888	0.000446	-0.001700
00312	13954417	-0.147791	0.241902	-9.802517	-0.004528	0.001553	-0.002591
00313	13954467	-0.132383	0.236477	-9.809551	-0.006239	0.004266	-0.000588
00314	13954517	-0.142073	0.233887	-9.830584	-0.005849	0.001047	-0.001020
00315	13954567	-0.134928	0.226763	-9.821278	-0.006826	-0.000487	0.000159
00316	13954617	-0.149572	0.237391	-9.836063	-0.005511	-0.002791	-0.001589
00317	13954667	-0.159585	0.243189	-9.821880	-0.002966	0.001772	-0.002915
00318	13954717	-0.141196	0.224153	-9.797508	-0.006870	0.000962	-0.000187
00319	13954767	-0.135208	0.227394	-9.806655	-0.004212	0.001950	-0.001085
00320	13954817	-0.132364	0.228036	-9.801392	-0.004893	0.002963	-0.002233
00321	13954867	-0.128111	0.230141	-9.809567	-0.005020	0.000925	-0.003494
00322	13954917	-0.128530	0.217121	-9.799496	-0.002166	-0.000411	-0.003286
00323	13954967	-0.142261	0.229660	-9.820999	-0.003771	0.002953	-0.002906
00324	13955017	-0.155282	0.240686	-9.817339	-0.006869	0.002967	-0.002035
00325	13955067	-0.139094	0.226514	-9.810953	-0.005268	-0.000563	-0.003596
00326	13955117	-0.133990	0.219895	-9.810736	-0.003719	-0.000855	-0.002351
00327	13955167	-0.144377	0.220724	-9.818830	-0.001298	0.000574	-0.002035
00328	13955217	-0.139396	0.235661	-9.811671	-0.000831	0.000132	-0.000788
00329	13955267	-0.150262	0.225733	-9.805623	-0.001337	-0.001200	-0.002069
00330	13955317	-0.119914	0.215613	-9.835255	-0.001173	0.001741	-0.000685
00331	13955367	-0.142319	0.227264	-9.818127	-0.003924	-0.000310	-0.002607
00332	13955417	-0.144292	0.225967	-9.805651	-0.007778	0.000273	0.000389
00333	13955467	-0.151477	0.226537	-9.809931	-0.004479	-0.000994	-0.001258
00334	13955517	-0.155925	0.226897	-9.799598	-0.007043	0.002416	-0.000531
00335	13955567	-0.141809	0.228305	-9.827715	-0.004917	-0.000459	-0.002924
00336	13955617	-0.130196	0.212598	-9.813633	-0.003151	0.002576	-0.002209
00337	13955667	-0.135899	0.213143	-9.821505	-0.004655	0.002715	-0.001403
00338	13955717	-0.142655	0.230748	-9.805182	0.000101	0.002351	0.002529
00339	13955767	-0.144599	0.235380	-9.815964	-0.001099	-0.000548	-0.000916
00340	13955817	-0.139764	0.233429	-9.812622	-0.005770	0.001696	-0.000472
00341	13955867	-0.124854	0.215139	-9.804312	-0.005193	0.001574	-0.001118
00342	13955917	-0.144050	0.242249	-9.804217	-0.006884	0.000188	-0.000896
00343	13955967	-0.134438	0.218763	-9.798988	-0.005245	0.001923	-0.004675
00344	13956017	-0.131111	0.221197	-9.816257	-0.005599	0.000016	-0.001129
00345	13956067	-0.138904	0.221546	-9.819819	-0.002051	0.001206	-0.001933
00346	13956117	-0.121803	0.232146	-9.808397	-0.006365	0.005133	-0.003661
00347	13956167	-0.160503	0.226578	-9.836729	-0.004441	0.001945	-0.000409
00348	13956217	-0.133975	0.224569	-9.819601	-0.003935	0.000113	-0.001036
00349	13956267	-0.141777	0.235705	-9.809500	-0.006279	-0.000512	-0.000393
00350	13956317	-0.133642	0.237628	-9.805946	-0.007025	0.003765	-0.002322
00351	13956367	-0.133735	0.230386	-9.813371	-0.005975	0.001949	-0.002075
00352	13956417	-0.150638	0.239532	-9.805377	-0.003575	0.000627	-0.004009
00353	13956467	-0.133362	0.207678	-9.823439	-0.002513	0.003950	-0.000442
00354	13956517	-0.149649	0.232209	-9.794836	-0.001931	0.001536	-0.000452
00355	13956567	-0.150878	0.230006	-9.819036	-0.005113	0.001962	-0.001597
00356	13956617	-0.150066	0.230992	-9.807065	-0.004227	0.001165	-0.003460
00357	13956667	-0.129963	0.236645	-9.805006	-0.002041	-0.001345	-0.003291
00358	13956717	-0.139287	0.242346	-9.798964	-0.002497	0.000466	0.001788
00359	13956767	-0.150273	0.233556	-9.817367	-0.005579	0.001436	-0.001791
00360	13956817	-0.123707	0.216254	-9.830682	-0.004438	0.001884	0.001220
00361	13956867	-0.147023	0.238489	-9.812834	-0.003734	-0.001214	-0.002869
00362	13956917	-0.134607	0.225746	-9.818644	-0.005131	0.003740	0.000271
00363	13956967	-0.141457	0.218170	-9.820286	-0.000800	0.002402	0.001790
00364	13957017	-0.146791	0.223612	-9.821216	-0.002209	0.000978	-0.002506
00365	13957067	-0.138662	0.225628	-9.790580	-0.002299	0.001109	-0.000391
00366	13957117	-0.132506	0.254902	-9.810272	0.000036	-0.001044	-0.000761
00367	13957167	-0.142109	0.224686	-9.797991	-0.007466	0.003171	-0.006295
00368	13957217	-0.136957	0.206773	-9.797064	-0.002141	0.002310	-0.000098
00369	13957267	-0.134947	0.220335	-9.800902	-0.000612	0.000102	-0.002136
00370	13957317	-0.144098	0.205610	-9.829139	-0.005402	0.000526	-0.006735
00371	13957367	-0.135172	0.223989	-9.817681	-0.001576	-0.000886	-0.003966
00372	13957417	-0.128654	0.206282	-9.794458	-0.006692	0.000388	-0.000706
00373	13957467	-0.128540	0.222554	-9.805490	-0.006846	-0.000034	-0.000866
00374	13957517	-0.121743	0.219831	-9.828528	-0.004604	-0.001064	-0.000621
00375	13957567	-0.157177	0.240756	-9.819013	-0.001730	0.001346	0.000025
00376	13957617	-0.127314	0.225137	-9.800702	-0.007568	0.002596	-0.002646
00377	13957667	-0.127460	0.220009	-9.814608	-0.002682	0.000575	-0.005202
00378	13957717	-0.126716	0.219981	-9.814607	-0.003768	0.002417	0.004106
00379	13957767	-0.107100	0.215345	-9.824053	-0.001168	0.001516	-0.001934
00380	13957817	-0.142333	0.224079	-9.825792	-0.004816	-0.003719	-0.003040
00381	13957867	-0.140558	0.215471	-9.820524	-0.006860	-0.002554	-0.000464
00382	13957917	-0.133577	0.210685	-9.816248	-0.002413	-0.001770	-0.003226
00383	13957967	-0.134546	0.227237	-9.808339	-0.003280	-0.001425	-0.001621
00384	13958017	-0.141685	0.236607	-9.827475	-0.003046	0.000256	-0.002285
00385	13958067	-0.136299	0.248535	-9.827991	-0.002620	0.000139	-0.000390
00386	13958117	-0.145340	0.245954	-9.802537	-0.004972	-0.000683	-0.002665
00387	13958167	-0.124030	0.215010	-9.830915	-0.002997	-0.001392	-0.002523
00388	13958217	-0.152721	0.228870	-9.789547	-0.006248	0.000358	-0.003238
00389	13958267	-0.157823	0.226185	-9.808699	-0.004423	0.001460	-0.002305
00390	13958317	-0.152046	0.224019	-9.813278	-0.005803	0.002596	-0.001141
00391	13958367	-0.164365	0.253920	-9.814671	-0.003361	-0.000582	0.002330
00392	13958417	-0.141057	0.218060	-9.818607	-0.005785	-0.001115	-0.000296
00393	13958467	-0.119716	0.233782	-9.830943	-0.001270	0.000806	-0.000654
00394	13958517	-0.140233	0.238295	-9.825329	-0.004014	-0.000472	-0.002476
00395	13958567	-0.139686	0.224925	-9.817896	-0.005694	-0.000623	0.001981
00396	13958617	-0.143867	0.230765	-9.812122	-0.006541	-0.000614	-0.002117
00397	13958667	-0.141798	0.236211	-9.815981	-0.003625	-0.002788	-0.001368
00398	13958717	-0.136277	0.236309	-9.818398	-0.003936	-0.002025	-0.002874
00399	13958767	-0.165611	0.248556	-9.819208	-0.003400	0.003611	-0.000343
00400	13958817	-0.126477	0.224147	-9.816525	-0.005104	0.003902	-0.000080
00401	13958867	-0.131626	0.218582	-9.788458	-0.001248	0.000028	-0.003412
00402	13958917	-0.140782	0.221304	-9.819807	-0.002591	0.002136	-0.000578
00403	13958967	-0.118476	0.214603	-9.831662	-0.000097	0.002281	0.000826
00404	13959017	-0.139024	0.208178	-9.813105	-0.001773	-0.000565	-0.001398
00405	13959067	-0.129826	0.216383	-9.817466	-0.000562	-0.000546	-0.004219
00406	13959117	-0.135385	0.231346	-9.805704	-0.000776	-0.002606	0.000224
00407	13959167	-0.131901	0.231457	-9.822255	-0.002968	-0.002161	0.000461
00408	13959217	-0.114708	0.220105	-9.802444	-0.000408	0.002052	0.000790
00409	13959267	-0.134704	0.212385	-9.803059	-0.002331	-0.001953	0.001518
00410	13959317	-0.129663	0.215975	-9.815552	-0.004535	-0.002290	-0.001752
00411	13959367	-0.143437	0.218883	-9.815239	-0.003602	0.000567	-0.003114
00412	13959417	-0.144030	0.229716	-9.811402	-0.003202	0.001926	-0.004196
00413	13959467	-0.115613	0.220676	-9.817060	-0.004423	-0.000805	-0.003574
00414	13959517	-0.140553	0.230554	-9.802789	-0.002312	0.000266	-0.002863
00415	13959567	-0.146990	0.223120	-9.781189	-0.006671	0.001514	-0.003454
00416	13959617	-0.162830	0.242327	-9.811794	-0.005836	-0.001829	-0.003376
00417	13959667	-0.124838	0.225685	-9.825644	-0.004002	0.001408	0.000674
00418	13959717	-0.134832	0.228993	-9.800426	-0.004940	0.000644	-0.000002
00419	13959767	-0.137625	0.241210	-9.828458	-0.003536	0.001602	-0.000452
00420	13959817	-0.153582	0.240676	-9.803212	-0.003830	0.000858	-0.001699
00421	13959867	-0.138705	0.219941	-9.817177	-0.005420	-0.001530	-0.001490
00422	13959917	-0.143882	0.234991	-9.800386	-0.001665	0.002348	-0.001701
00423	13959967	-0.137281	0.227274	-9.820310	-0.001582	0.001700	-0.002284
00424	13960017	-0.149769	0.236339	-9.828396	-0.004507	-0.000028	-0.001997
00425	13960067	-0.133690	0.223871	-9.829673	-0.000492	-0.000802	-0.003131
00426	13960117	-0.157650	0.234367	-9.810619	-0.006456	0.001299	0.001542
00427	13960167	-0.130286	0.236302	-9.807876	-0.002749	0.002297	-0.000643
00428	13960217	-0.140277	0.238509	-9.811663	-0.002263	0.003079	-0.000159
00429	13960267	-0.122527	0.233983	-9.807439	-0.004278	-0.001417	-0.003000
00430	13960317	-0.134265	0.225933	-9.810971	-0.000841	-0.001711	-0.002435
00431	13960367	-0.140305	0.220489	-9.811419	-0.002810	0.003068	-0.001565
00432	13960417	-0.120803	0.222881	-9.810559	-0.003940	0.003670	0.001033
00433	13960467	-0.144163	0.222815	-9.808530	-0.004540	0.002401	0.001895
00434	13960517	-0.126688	0.216348	-9.818443	-0.005347	0.001543	0.001187
00435	13960567	-0.141493	0.218612	-9.809738	-0.004653	0.002515	-0.004166
00436	13960617	-0.140040	0.224851	-9.809986	-0.004209	0.000624	-0.001542
00437	13960667	-0.150912	0.226671	-9.822160	-0.002757	-0.000841	-0.001936
00438	13960717	-0.121925	0.214436	-9.811519	0.001598	0.001141	-0.003131
00439	13960767	-0.131476	0.230852	-9.828722	-0.002994	0.004202	0.002254
00440	13960817	-0.139698	0.245656	-9.811667	-0.003956	0.001888	-0.001475
00441	13960867	-0.154016	0.240023	-9.810395	-0.003389	-0.001042	-0.001683
00442	13960917	-0.154353	0.237065	-9.803202	-0.004096	0.003271	-0.002522
00443	13960967	-0.138239	0.226383	-9.803045	-0.005853	0.004111	-0.003026
00444	13961017	-0.143168	0.211962	-9.793910	-0.007629	0.003789	-0.001839
00445	13961067	-0.153829	0.243365	-9.825739	-0.004590	0.003912	0.000077
00446	13961117	-0.156091	0.228158	-9.824286	-0.006770	0.001870	-0.000088
00447	13961167	-0.143098	0.232989	-9.818837	-0.006839	0.000868	-0.000990
00448	13961217	-0.170061	0.232073	-9.813188	-0.005991	-0.000172	0.002851
00449	13961267	-0.155024	0.230732	-9.807510	-0.006535	0.000352	-0.003462
00450	13961317	-0.127953	0.233018	-9.810527	-0.006792	-0.000293	-0.000036
00451	13961367	-0.149584	0.238767	-9.819053	-0.001842	-0.000370	-0.002296
00452	13961417	-0.145500	0.235734	-9.815468	-0.005026	0.002579	0.000294
00453	13961467	-0.152195	0.236847	-9.808254	-0.002036	0.003918	-0.002044
00454	13961517	-0.134660	0.234381	-9.811220	-0.005079	-0.002003	0.000334
00455	13961567	-0.147372	0.236443	-9.820737	-0.003480	0.002055	-0.000768
00456	13961617	-0.126795	0.218121	-9.798069	-0.003491	0.001183	-0.002027
00457	13961667	-0.136405	0.223625	-9.805446	-0.006156	0.001488	-0.002529
00458	13961717	-0.135313	0.214610	-9.804973	-0.005496	-0.001077	-0.000623
00459	13961767	-0.136679	0.223223	-9.826540	-0.005868	0.001697	0.000130
00460	13961817	-0.139740	0.233488	-9.820294	-0.004978	0.001638	-0.002464
00461	13961867	-0.130046	0.214006	-9.822257	-0.006996	-0.001170	-0.001582
00462	13961917	-0.125372	0.226129	-9.821327	-0.005165	0.002068	0.003077
00463	13961967	-0.145939	0.231379	-9.810676	-0.005941	0.000853	-0.000386
00464	13962017	-0.137080	0.250960	-9.813125	-0.003406	0.002540	-0.002307
00465	13962067	-0.124873	0.222179	-9.813654	-0.004952	0.002231	0.001284
00466	13962117	-0.144795	0.235781	-9.800618	-0.006927	0.002931	-0.001298
00467	13962167	-0.158840	0.239832	-9.815410	-0.004430	0.003781	-0.001845
00468	13962217	-0.140709	0.235544	-9.815259	-0.004060	0.001603	0.003494
00469	13962267	-0.138943	0.227040	-9.817416	-0.004323	0.002396	-0.000767
00470	13962317	-0.122353	0.229178	-9.817990	-0.006005	-0.000219	-0.002798
00471	13962367	-0.135977	0.223664	-9.793709	-0.006587	0.001427	0.002313
00472	13962417	-0.154063	0.229378	-9.813988	-0.004052	-0.000282	-0.002123
00473	13962467	-0.157855	0.245673	-9.806062	-0.007045	0.001215	-0.002812
00474	13962517	-0.132704	0.232985	-9.827997	-0.003946	0.004728	-0.001620
00475	13962567	-0.140796	0.211327	-9.807335	-0.006888	0.000416	-0.002214
00476	13962617	-0.147018	0.245414	-9.813553	-0.004923	0.002390	0.000519
00477	13962667	-0.134138	0.236105	-9.814339	-0.004295	0.000429	-0.001159
00478	13962717	-0.135830	0.237347	-9.806416	-0.005170	0.002130	0.000486
00479	13962767	-0.148090	0.238682	-9.818811	-0.006808	0.003228	-0.001264
00480	13962817	-0.121563	0.225196	-9.820140	-0.007331	0.002077	-0.005089
00481	13962867	-0.141417	0.233263	-9.826038	-0.002261	-0.000381	-0.002935
00482	13962917	-0.150656	0.246616	-9.802983	-0.003564	0.003798	-0.000343
00483	13962967	-0.136876	0.224024	-9.797292	-0.008689	0.001936	-0.000244
00484	13963017	-0.142218	0.241417	-9.824832	-0.005957	0.001201	-0.003327
00485	13963067	-0.139540	0.209151	-9.800397	-0.004199	0.002626	-0.000925
00486	13963117	-0.140533	0.232175	-9.824599	-0.004944	-0.001586	-0.002934
00487	13963167	-0.136869	0.228547	-9.815756	-0.006953	0.001509	-0.001212
00488	13963217	-0.144580	0.212062	-9.811401	-0.000060	0.000791	-0.002645
00489	13963267	-0.136137	0.229237	-9.823909	-0.002824	0.000393	-0.000558
00490	13963317	-0.125984	0.228254	-9.836416	-0.005624	0.001219	0.000896
00491	13963367	-0.137126	0.231446	-9.814558	-0.001255	0.001284	-0.003727
00492	13963417	-0.153304	0.240475	-9.813279	-0.002602	-0.002379	0.001322
00493	13963467	-0.155657	0.240626	-9.819262	-0.002874	-0.001996	0.001035
00494	13963517	-0.143553	0.229201	-9.808529	-0.002994	0.000743	-0.000618
00495	13963567	-0.147502	0.233528	-9.800128	-0.003887	0.001791	-0.001440
00496	13963617	-0.116356	0.232369	-9.820174	-0.005779	0.003052	0.000042
00497	13963667	-0.128228	0.241417	-9.810286	-0.008275	0.000774	-0.003010
00498	13963717	-0.136536	0.236179	-9.812165	-0.003256	0.000996	-0.000742
00499	13963767	-0.157147	0.237908	-9.792163	-0.006956	0.000477	-0.001603
00500	13963817	-0.137359	0.226032	-9.810002	-0.006752	0.000022	-0.003851
00501	13963867	-0.136913	0.232948	-9.812638	-0.004788	0.001608	-0.004423
00502	13963917	-0.134724	0.224674	-9.805460	-0.000658	0.000685	-0.001714
00503	13963967	-0.135781	0.232145	-9.812884	-0.001787	-0.000817	0.001264
00504	13964017	-0.157405	0.243250	-9.790495	-0.005348	0.001509	-0.000256
00505	13964067	-0.134329	0.245332	-9.802113	-0.004121	-0.000155	-0.003343
00506	13964117	-0.147462	0.254072	-9.816193	-0.000525	-0.001377	0.000808
00507	13964167	-0.135321	0.240351	-9.815523	-0.005503	0.002246	-0.000570
00508	13964217	-0.154993	0.248984	-9.818299	-0.006597	-0.000874	-0.003309
00509	13964267	-0.151505	0.231653	-9.814724	-0.006521	-0.001097	-0.001451
00510	13964317	-0.135548	0.232106	-9.792271	-0.003722	0.003736	0.000326
00511	13964367	-0.146024	0.232292	-9.809965	-0.004041	-0.000404	0.000471
00512	13964417	-0.149194	0.227123	-9.818091	-0.002616	0.002005	-0.000995
00513	13964467	-0.156733	0.242953	-9.814701	-0.005347	0.003411	-0.002069
00514	13964517	-0.152501	0.228164	-9.829090	-0.002835	0.000907	0.001114
00515	13964567	-0.136679	0.222379	-9.802571	-0.004493	-0.000451	-0.001296
00516	13964617	-0.128815	0.225225	-9.802378	-0.002345	-0.000637	-0.002455
00517	13964667	-0.145164	0.230233	-9.833692	-0.000700	-0.000256	-0.003899
00518	13964717	-0.145006	0.223839	-9.799891	-0.001981	0.001343	-0.000203
00519	13964767	-0.154755	0.224568	-9.807513	-0.004239	0.000886	0.001056
00520	13964817	-0.132781	0.212235	-9.818648	-0.006182	0.001857	0.002472
00521	13964867	-0.157987	0.239309	-9.813497	-0.005043	0.002031	-0.000186
00522	13964917	-0.145234	0.239522	-9.800143	-0.004601	0.000035	-0.001161
00523	13964967	-0.132722	0.222141	-9.817218	-0.005928	0.000299	-0.001928
00524	13965017	-0.139091	0.231633	-9.789856	-0.002695	0.004426	-0.003611
00525	13965067	-0.133693	0.218974	-9.808100	-0.007626	0.002922	0.001681
00526	13965117	-0.134097	0.227941	-9.811219	-0.004471	-0.002353	-0.002200
00527	13965167	-0.133805	0.211743	-9.804745	-0.005837	0.003757	-0.001491
00528	13965217	-0.153323	0.224913	-9.801291	-0.002415	0.002689	-0.001442
00529	13965267	-0.134574	0.235402	-9.816966	-0.005773	-0.000340	-0.000425
00530	13965317	-0.141005	0.229508	-9.798714	-0.001771	0.000565	-0.002611
00531	13965367	-0.151279	0.234823	-9.808975	-0.004385	0.000197	-0.001610
00532	13965417	-0.154811	0.234114	-9.796255	-0.004175	0.005818	-0.002862
00533	13965467	-0.116074	0.222688	-9.810105	-0.003505	0.000892	-0.000874
00534	13965517	-0.139550	0.230550	-9.812142	-0.004503	0.000107	0.001594
00535	13965567	-0.129944	0.221432	-9.805723	-0.001534	0.000926	-0.003317
00536	13965617	-0.130678	0.227335	-9.813869	-0.004371	0.001749	-0.001921
00537	13965667	-0.117064	0.225803	-9.811781	-0.002858	0.001583	-0.000200
00538	13965717	-0.135150	0.220358	-9.809533	-0.006232	0.000907	-0.001863
00539	13965767	-0.137295	0.229966	-9.791308	-0.002628	0.000136	-0.003382
00540	13965817	-0.126049	0.225010	-9.820836	-0.009365	0.001786	-0.003579
00541	13965867	-0.143870	0.227610	-9.816441	-0.000867	-0.001134	-0.005377
00542	13965917	-0.138661	0.236909	-9.814308	-0.001762	0.000212	-0.002199
00543	13965967	-0.142578	0.226918	-9.811654	-0.004294	0.001462	-0.000449
00544	13966017	-0.130168	0.223425	-9.809318	-0.001897	0.001474	-0.001486
00545	13966067	-0.129175	0.241128	-9.814361	-0.003333	0.001478	-0.000551
00546	13966117	-0.146344	0.224188	-9.814034	-0.002214	-0.000367	0.002130
00547	13966167	-0.139409	0.223645	-9.818858	-0.000874	0.002723	0.000506
00548	13966217	-0.145697	0.235279	-9.817624	-0.002868	0.002809	-0.002913
00549	13966267	-0.150604	0.248331	-9.823120	-0.005067	0.001509	-0.002500
00550	13966317	-0.143208	0.225934	-9.819078	-0.008430	0.002644	-0.002706
00551	13966367	-0.147177	0.229686	-9.812826	-0.002924	0.000876	0.001726
00552	13966417	-0.150024	0.214768	-9.815206	-0.002520	0.001077	0.001022
00553	13966467	-0.139884	0.236967	-9.815984	-0.004599	-0.001001	-0.000431
00554	13966517	-0.132813	0.233503	-9.812656	-0.004495	0.003715	-0.003162
00555	13966567	-0.135343	0.214444	-9.805695	-0.000494	0.000657	-0.001553
00556	13966617	-0.133250	0.215503	-9.804988	-0.003953	-0.000340	-0.001165
00557	13966667	-0.138473	0.222628	-9.809990	-0.002673	0.001882	0.000637
00558	13966717	-0.140045	0.225258	-9.822927	-0.006110	0.002135	-0.003647
00559	13966767	-0.138278	0.222580	-9.809520	-0.002466	0.000393	-0.000589
00560	13966817	-0.132866	0.207419	-9.832547	-0.003569	0.001997	0.001282
00561	13966867	-0.134985	0.223214	-9.799705	-0.004002	0.002173	-0.002465
00562	13966917	-0.116220	0.220517	-9.824965	-0.003175	0.001153	-0.003567
00563	13966967	-0.142212	0.224305	-9.814054	-0.002508	0.003653	-0.001504
00564	13967017	-0.142618	0.219839	-9.799904	-0.006045	0.001138	-0.002272
00565	13967067	-0.113612	0.210663	-9.815875	-0.002130	-0.002343	-0.000926
00566	13967117	-0.130998	0.219572	-9.818893	-0.004008	0.002099	-0.006603
00567	13967167	-0.148875	0.216202	-9.811619	-0.004801	0.000025	-0.002956
00568	13967217	-0.134419	0.227145	-9.816248	-0.007230	0.001279	-0.001344
00569	13967267	-0.150462	0.223691	-9.795309	-0.004716	0.002678	-0.002238
00570	13967317	-0.136801	0.232093	-9.791551	-0.003841	0.002440	-0.000960
00571	13967367	-0.153485	0.247358	-9.822860	-0.003470	0.002570	-0.002591
00572	13967417	-0.122046	0.226324	-9.819186	-0.004318	0.002037	-0.003270
00573	13967467	-0.124855	0.217439	-9.810534	-0.006807	0.000738	-0.001793
00574	13967517	-0.130349	0.245679	-9.814591	-0.006162	0.002717	-0.002842
00575	13967567	-0.121569	0.216354	-9.804333	-0.003666	0.001699	-0.001571
00576	13967617	-0.155349	0.217342	-9.800559	-0.006419	0.002709	-0.004506
00577	13967667	-0.152633	0.220184	-9.819751	-0.001540	0.003450	0.000419
00578	13967717	-0.140692	0.239474	-9.790812	-0.006650	0.001196	-0.000701
00579	13967767	-0.138107	0.235803	-9.817911	-0.003292	0.000997	0.000250
00580	13967817	-0.147001	0.224038	-9.814740	-0.003770	0.002353	0.002468
00581	13967867	-0.123501	0.230603	-9.823014	-0.004752	0.001010	0.002719
00582	13967917	-0.134372	0.213575	-9.801383	-0.004204	0.001756	0.000098
00583	13967967	-0.125025	0.230693	-9.812462	-0.002737	0.000744	-0.001548
00584	13968017	-0.131213	0.232826	-9.804996	-0.003685	0.002442	-0.001185
00585	13968067	-0.137615	0.235428	-9.819826	-0.006874	0.002029	-0.002137
00586	13968117	-0.145052	0.227258	-9.802534	-0.004458	0.001389	-0.003016
00587	13968167	-0.141018	0.233180	-9.805434	-0.003032	0.000063	-0.001358
00588	13968217	-0.128627	0.210819	-9.804285	-0.004420	0.001593	0.000223
00589	13968267	-0.127394	0.219033	-9.810529	-0.005133	0.003169	0.003437
00590	13968317	-0.136622	0.241101	-9.807380	-0.003043	0.000451	0.000953
00591	13968367	-0.136658	0.229654	-9.803535	-0.002783	0.001064	-0.003052
00592	13968417	-0.139324	0.234180	-9.812629	0.000106	0.001123	0.000464
00593	13968467	-0.152296	0.252104	-9.824787	-0.003709	0.002851	-0.005858
00594	13968517	-0.147237	0.242437	-9.807071	-0.005806	0.002857	-0.001238
00595	13968567	-0.134977	0.219648	-9.827263	-0.004141	0.002529	-0.001951
00596	13968617	-0.145797	0.249681	-9.802294	-0.003857	0.000919	-0.001832
00597	13968667	-0.148186	0.232245	-9.794850	-0.004523	0.002716	0.000615
00598	13968717	-0.127522	0.223552	-9.810527	-0.002839	0.001644	-0.004364
00599	13968767	-0.151576	0.242170	-9.815450	-0.001663	0.002319	-0.000485
00600	13968817	-0.129275	0.227849	-9.801173	-0.005017	0.002193	0.000064
00601	13968867	-0.163984	0.226187	-9.813459	-0.003805	0.001509	0.002917
00602	13968917	-0.140876	0.219858	-9.802790	-0.003231	0.000056	-0.003538
00603	13968967	-0.119815	0.214960	-9.805293	-0.004038	0.002069	-0.006060
00604	13969017	-0.131952	0.232369	-9.804034	-0.004905	0.001516	-0.000739
00605	13969067	-0.132950	0.234858	-9.799477	-0.002038	0.003119	0.000131
00606	13969117	-0.136447	0.220808	-9.810478	-0.006163	0.005177	-0.000136
00607	13969167	-0.136720	0.222417	-9.807844	-0.003260	-0.002042	-0.001145
00608	13969217	-0.126019	0.234913	-9.808863	-0.004261	0.001302	-0.001572
00609	13969267	-0.125712	0.213375	-9.811016	-0.004441	0.000942	-0.001836
00610	13969317	-0.135294	0.230689	-9.832775	-0.004845	0.004975	0.001716
00611	13969367	-0.129149	0.233398	-9.807171	-0.004966	0.000286	-0.001739
00612	13969417	-0.129627	0.230435	-9.810760	-0.005868	-0.002667	-0.001238
00613	13969467	-0.148579	0.231783	-9.808734	-0.004568	0.002842	-0.003456
00614	13969517	-0.134142	0.231710	-9.793965	-0.002714	0.001908	-0.001480
00615	13969567	-0.134646	0.207626	-9.790839	-0.002249	0.001693	-0.000709
00616	13969617	-0.149775	0.243571	-9.795078	-0.000544	0.002629	0.002050
00617	13969667	-0.148065	0.230057	-9.817379	-0.004430	0.001783	-0.000865
00618	13969717	-0.114216	0.227164	-9.817788	-0.006747	0.000864	-0.003206
00619	13969767	-0.130861	0.213390	-9.824172	-0.001138	0.002678	-0.001640
00620	13969817	-0.147421	0.240003	-9.821699	-0.004207	0.000948	0.000509
00621	13969867	-0.152536	0.240177	-9.814719	-0.005569	0.000372	-0.000801
00622	13969917	-0.117303	0.222243	-9.807468	-0.007333	-0.000691	-0.001796
00623	13969967	-0.137331	0.224642	-9.813111	-0.003429	-0.000691	-0.001837
00624	13970017	-0.149760	0.227309	-9.813770	-0.004121	-0.000251	-0.003143
00625	13970067	-0.134135	0.219528	-9.812651	-0.007038	0.002088	-0.001331
00626	13970117	-0.125392	0.233092	-9.807901	-0.010138	-0.001805	0.000773
00627	13970167	-0.127495	0.231356	-9.827784	-0.005057	0.003253	-0.002453
00628	13970217	-0.153199	0.250818	-9.820234	-0.002984	0.003745	0.000337
00629	13970267	-0.138431	0.226238	-9.823417	-0.004002	0.003075	-0.005147
00630	13970317	-0.143490	0.228159	-9.811644	-0.008127	0.003196	-0.003146
00631	13970367	-0.147304	0.219975	-9.814983	-0.004336	-0.000678	-0.005039
00632	13970417	-0.146305	0.231115	-9.800612	-0.002746	0.001968	-0.001821
00633	13970467	-0.143054	0.240331	-9.815248	-0.007121	-0.002299	-0.000198
00634	13970517	-0.146939	0.231643	-9.815466	-0.004872	0.001644	-0.001368
00635	13970567	-0.140020	0.223840	-9.813584	-0.003479	-0.002110	-0.000592
00636	13970617	-0.133787	0.224497	-9.801152	-0.005292	0.001340	-0.004929
00637	13970667	-0.154173	0.223494	-9.806325	-0.000369	0.002857	0.000743
00638	13970717	-0.131634	0.234235	-9.799721	-0.004970	0.006643	-0.003811
00639	13970767	-0.143943	0.222393	-9.813560	-0.003490	0.001282	-0.000506
00640	13970817	-0.139832	0.235983	-9.815021	-0.002946	0.001361	0.000864
00641	13970867	-0.139354	0.236988	-9.805671	-0.010957	0.002994	-0.000738
00642	13970917	-0.145066	0.233049	-9.803484	-0.010274	0.001256	-0.001484
00643	13970967	-0.160243	0.231213	-9.813964	-0.003680	0.000475	0.000899
00644	13971017	-0.139880	0.255493	-9.820303	-0.001352	-0.001880	-0.003003
00645	13971067	-0.135656	0.216969	-9.791063	-0.006480	0.001649	-0.001113
00646	13971117	-0.135640	0.232713	-9.817922	-0.002290	0.001852	0.000066
00647	13971167	-0.131051	0.206702	-9.817932	-0.003623	0.003340	-0.002745
00648	13971217	-0.123755	0.220859	-9.799762	-0.007223	0.001924	-0.001045
00649	13971267	-0.142600	0.242680	-9.802308	-0.005236	0.000025	-0.000353
00650	13971317	-0.148486	0.223785	-9.819775	-0.001730	-0.000950	-0.002384
00651	13971367	-0.144057	0.236217	-9.818842	-0.002394	0.000913	-0.002150
00652	13971417	-0.136662	0.215862	-9.813116	-0.005820	0.002012	-0.003419
00653	13971467	-0.130692	0.220155	-9.811228	-0.003549	0.005184	-0.002319
00654	13971517	-0.136752	0.228793	-9.794910	-0.002129	0.000951	0.000190
00655	13971567	-0.148457	0.230359	-9.797966	-0.002036	-0.002110	0.001486
00656	13971617	-0.152834	0.242307	-9.802973	-0.004469	0.000841	-0.002559
00657	13971667	-0.138308	0.219095	-9.822217	-0.005879	0.003016	-0.001356
00658	13971717	-0.128834	0.208829	-9.809316	-0.006499	0.000324	-0.000345
00659	13971767	-0.130031	0.225251	-9.801652	-0.005420	-0.000896	-0.006896
00660	13971817	-0.137450	0.219022	-9.813830	-0.007895	0.001948	-0.002226
00661	13971867	-0.127922	0.229786	-9.803586	-0.002989	-0.000456	-0.001004
00662	13971917	-0.119775	0.219139	-9.794030	-0.005865	-0.000506	-0.001539
00663	13971967	-0.125679	0.226912	-9.812210	-0.005681	0.000957	0.000295
00664	13972017	-0.151929	0.225252	-9.800102	-0.005390	0.000571	-0.000475
00665	13972067	-0.131061	0.225889	-9.810991	-0.004770	0.004222	-0.003251
00666	13972117	-0.127485	0.219820	-9.813879	-0.005537	0.001175	-0.002850
00667	13972167	-0.151056	0.228032	-9.812559	-0.004756	0.005068	-0.002664
00668	13972217	-0.136414	0.238774	-9.804973	-0.007277	-0.000237	0.000165
00669	13972267	-0.140817	0.247884	-9.831553	-0.004591	0.001514	-0.003455
00670	13972317	-0.139202	0.224361	-9.816224	-0.002532	-0.000096	-0.004363
00671	13972367	-0.146197	0.245502	-9.807807	-0.003044	-0.000814	-0.002895
00672	13972417	-0.129941	0.218481	-9.794937	-0.004277	0.001950	-0.000507
00673	13972467	-0.139945	0.243342	-9.799212	-0.002030	0.003793	-0.000693
00674	13972517	-0.144815	0.231943	-9.803491	-0.005289	0.001870	0.001036
00675	13972567	-0.138877	0.229876	-9.799446	-0.004627	-0.000320	-0.002695
00676	13972617	-0.142154	0.239610	-9.820045	-0.004164	0.003431	-0.001618
00677	13972667	-0.134843	0.230988	-9.789642	-0.005032	0.002673	-0.000434
00678	13972717	-0.143994	0.239980	-9.812603	-0.004240	-0.001314	-0.000428
00679	13972767	-0.144366	0.234951	-9.803970	-0.007183	0.000763	-0.001755
00680	13972817	-0.130478	0.243881	-9.809793	-0.004401	-0.000320	-0.002697
00681	13972867	-0.141551	0.228578	-9.827477	-0.003932	-0.000153	-0.004268
00682	13972917	-0.129936	0.228450	-9.820581	-0.006621	-0.000938	-0.001093
00683	13972967	-0.133548	0.245341	-9.810497	-0.008206	0.000784	0.000273
00684	13973017	-0.156741	0.231842	-9.831470	-0.006248	0.002624	-0.000080
00685	13973067	-0.154929	0.226997	-9.822613	-0.005601	-0.000891	-0.001735
00686	13973117	-0.135259	0.230008	-9.821754	-0.006188	-0.000411	0.000098
00687	13973167	-0.127102	0.226475	-9.816523	-0.006500	-0.000776	-0.002599
00688	13973217	-0.139664	0.226267	-9.810465	-0.005505	0.002542	0.000493
00689	13973267	-0.139933	0.242578	-9.815984	-0.001427	0.000930	-0.000387
00690	13973317	-0.147776	0.220275	-9.802518	-0.004569	0.002071	-0.000150
00691	13973367	-0.136638	0.235060	-9.814559	-0.003586	0.002376	-0.001501
00692	13973417	-0.144232	0.229357	-9.818112	-0.005265	0.000063	0.002787
00693	13973467	-0.136983	0.238135	-9.813841	-0.003867	0.001851	-0.003485
00694	13973517	-0.139784	0.241318	-9.825572	-0.001425	0.001638	-0.003396
00695	13973567	-0.134134	0.216687	-9.805457	-0.002166	0.001890	-0.001026
00696	13973617	-0.128204	0.225762	-9.821070	-0.003579	0.002285	0.001386
00697	13973667	-0.146178	0.230171	-9.814506	-0.001929	0.000665	0.000381
00698	13973717	-0.147328	0.231297	-9.823133	-0.003956	0.001085	0.001383
00699	13973767	-0.131135	0.212677	-9.832080	-0.003667	-0.001568	-0.003475
00700	13973817	-0.140871	0.226584	-9.814053	-0.005817	0.003079	-0.001807
00701	13973867	-0.139710	0.238707	-9.806161	-0.004829	-0.002136	-0.003409
00702	13973917	-0.150085	0.235512	-9.804903	-0.004758	0.000904	-0.001217
00703	13973967	-0.144511	0.239645	-9.795106	-0.003906	0.001274	-0.002018
00704	13974017	-0.132129	0.234250	-9.786785	-0.003278	0.000641	-0.001859
00705	13974067	-0.150419	0.240588	-9.798675	-0.003589	0.002513	-0.000310
00706	13974117	-0.147421	0.230484	-9.817375	-0.003827	-0.001306	-0.000103
00707	13974167	-0.130464	0.224436	-9.811952	-0.005988	-0.000731	-0.000131
00708	13974217	-0.139485	0.217595	-9.789613	-0.002535	0.000493	-0.000902
00709	13974267	-0.132314	0.216707	-9.804267	-0.002656	-0.000128	-0.003728
00710	13974317	-0.128512	0.230812	-9.812689	0.000601	0.002317	-0.003690
00711	13974367	-0.133933	0.256920	-9.809062	-0.005241	0.000990	-0.002301
00712	13974417	-0.150221	0.220008	-9.805140	-0.003358	-0.001144	-0.004209
00713	13974467	-0.144099	0.235365	-9.803259	-0.005691	0.003245	-0.001008
00714	13974517	-0.134472	0.218677	-9.823436	-0.005383	0.004640	-0.000744
00715	13974567	-0.157771	0.240066	-9.817575	-0.001490	-0.000431	-0.003601
00716	13974617	-0.146408	0.241609	-9.825775	-0.005699	0.004470	-0.002471
00717	13974667	-0.131449	0.233429	-9.809312	-0.005483	0.001801	0.000904
00718	13974717	-0.142062	0.230525	-9.792961	-0.007544	-0.000281	-0.004768
00719	13974767	-0.123619	0.218912	-9.817980	-0.002248	0.002469	-0.001887
00720	13974817	-0.138953	0.225984	-9.810946	-0.002950	0.003422	-0.001878
00721	13974867	-0.135248	0.234068	-9.811932	-0.001739	0.002502	-0.002500
00722	13974917	-0.133446	0.238996	-9.811457	-0.008397	-0.000355	-0.000926
00723	13974967	-0.138223	0.249204	-9.810240	-0.001992	0.004700	-0.001200
00724	13975017	-0.140032	0.224219	-9.796089	0.000219	0.001416	0.000346
00725	13975067	-0.145115	0.238846	-9.812123	-0.000653	0.000881	0.000668
00726	13975117	-0.141771	0.228670	-9.821244	-0.002044	0.002480	0.002312
00727	13975167	-0.149790	0.235752	-9.790286	-0.004437	-0.002195	-0.002097
00728	13975217	-0.137316	0.228561	-9.817908	-0.007025	0.000931	0.000457
00729	13975267	-0.147256	0.234768	-9.811384	-0.007578	-0.001184	-0.003844
00730	13975317	-0.124706	0.217343	-9.826363	-0.004225	0.001200	-0.002053
00731	13975367	-0.145916	0.233534	-9.820024	-0.001017	0.002003	-0.000961
00732	13975417	-0.144411	0.241501	-9.804226	-0.004294	0.001626	0.000904
00733	13975467	-0.135945	0.228431	-9.819122	-0.001194	-0.000714	-0.002965
00734	13975517	-0.112641	0.221927	-9.823789	-0.002515	0.000749	-0.001289
00735	13975567	-0.138873	0.230180	-9.803756	-0.005143	0.000698	-0.002787
00736	13975617	-0.128027	0.227993	-9.811487	-0.001584	0.002828	-0.002144
00737	13975667	-0.144435	0.234224	-9.797269	-0.003189	0.001799	-0.003553
00738	13975717	-0.128061	0.210116	-9.818670	-0.004060	-0.000017	-0.001481
00739	13975767	-0.137120	0.225201	-9.804487	-0.003447	0.001660	-0.004611
00740	13975817	-0.157200	0.239903	-9.819012	-0.006054	-0.000539	-0.000832
00741	13975867	-0.155788	0.237645	-9.805116	0.000495	0.003907	-0.000729
00742	13975917	-0.126866	0.228726	-9.822997	-0.006143	0.000301	0.000197
00743	13975967	-0.131387	0.220893	-9.798522	-0.004575	0.001195	-0.002333
00744	13976017	-0.124651	0.225090	-9.820848	-0.003795	-0.000309	-0.002859
00745	13976067	-0.131656	0.217505	-9.822484	-0.004835	0.002390	-0.001046
00746	13976117	-0.129076	0.212224	-9.819143	-0.003742	0.000049	-0.001127
00747	13976167	-0.147188	0.227182	-9.796767	-0.007124	0.002062	-0.000236
00748	13976217	-0.144436	0.212810	-9.791748	-0.003209	0.001547	-0.001276
00749	13976267	-0.132830	0.226840	-9.798525	-0.005255	0.003443	-0.002481
00750	13976317	-0.142906	0.230046	-9.797987	-0.004479	0.002099	-0.002682
00751	13976367	-0.152684	0.233304	-9.799141	-0.005319	0.003607	-0.001325
00752	13976417	-0.133039	0.222014	-9.794439	-0.003964	0.003409	0.000399
00753	13976467	-0.128244	0.223516	-9.795425	-0.004889	0.004527	0.002842
00754	13976517	-0.152591	0.245700	-9.805136	-0.006761	0.003105	0.002460
00755	13976567	-0.137935	0.233790	-9.806408	-0.005481	0.000834	0.001962
00756	13976617	-0.140319	0.229230	-9.821243	-0.005227	0.005067	0.002527
00757	13976667	-0.137287	0.228678	-9.819592	-0.000544	0.001302	-0.000712
00758	13976717	-0.139984	0.236726	-9.815736	-0.003977	0.004627	-0.002319
00759	13976767	-0.144480	0.225258	-9.802532	-0.001259	0.002546	-0.003009
00760	13976817	-0.125404	0.226166	-9.815810	-0.001402	0.001127	-0.000036
00761	13976867	-0.142101	0.244378	-9.808790	-0.002945	0.001393	0.000197
00762	13976917	-0.148982	0.213338	-9.787646	-0.007585	0.002470	0.000152
00763	13976967	-0.141036	0.234817	-9.808787	-0.007914	-0.000871	-0.006151
00764	13977017	-0.122485	0.224978	-9.810074	-0.003843	0.003172	-0.004794
00765	13977067	-0.150086	0.235409	-9.818567	-0.000919	-0.000225	-0.001711
00766	13977117	-0.137612	0.228582	-9.820548	-0.007167	-0.001920	-0.002760
00767	13977167	-0.126474	0.209883	-9.801664	-0.006130	0.000618	-0.003168
00768	13977217	-0.134216	0.218012	-9.796354	-0.004562	0.001615	-0.002620
00769	13977267	-0.131720	0.211160	-9.803070	-0.007838	0.000007	-0.003680
00770	13977317	-0.136084	0.220809	-9.812404	-0.001706	0.001342	-0.001825
00771	13977367	-0.128092	0.214308	-9.812918	-0.005723	0.000914	-0.002497
00772	13977417	-0.138601	0.212859	-9.805198	-0.004897	0.003321	-0.001073
00773	13977467	-0.125877	0.220506	-9.814614	-0.002459	-0.000056	-0.000904
00774	13977517	-0.142602	0.236983	-9.797035	-0.008504	0.000291	0.000301
00775	13977567	-0.121836	0.231280	-9.817034	-0.004769	0.002291	-0.001980
00776	13977617	-0.130045	0.215790	-9.812906	-0.008065	0.001495	0.001458
00777	13977667	-0.132870	0.215828	-9.818890	0.000640	0.001261	0.000022
00778	13977717	-0.117200	0.221589	-9.808661	-0.006370	0.004361	-0.001740
00779	13977767	-0.159462	0.237214	-9.815158	-0.003967	0.004470	-0.001004
00780	13977817	-0.140472	0.228209	-9.820292	-0.004585	-0.002576	-0.000206
00781	13977867	-0.133787	0.223622	-9.823918	-0.002874	0.004100	-0.002069
00782	13977917	-0.131416	0.223794	-9.813140	-0.005209	-0.001104	-0.001259
00783	13977967	-0.138781	0.225128	-9.810229	-0.007163	-0.000845	0.001216
00784	13978017	-0.134793	0.221879	-9.833255	-0.004698	0.002196	-0.000664
00785	13978067	-0.118295	0.216881	-9.804585	-0.004164	-0.001562	0.001624
00786	13978117	-0.130182	0.225788	-9.803801	-0.005517	0.002664	-0.002424
00787	13978167	-0.153383	0.238662	-9.826455	-0.006483	0.001070	0.000972
00788	13978217	-0.133798	0.223128	-9.823917	-0.003856	0.004892	-0.000715
00789	13978267	-0.125803	0.229724	-9.804069	-0.007751	-0.000671	-0.002372
00790	13978317	-0.132158	0.227159	-9.823214	-0.003556	-0.004119	-0.003584
00791	13978367	-0.156141	0.233093	-9.824768	-0.003859	0.001920	0.000586
00792	13978417	-0.143070	0.230732	-9.796553	-0.004247	0.004746	-0.006481
00793	13978467	-0.127657	0.220368	-9.817234	-0.006337	0.003496	0.000662
00794	13978517	-0.145291	0.241402	-9.823139	-0.008644	0.002284	-0.001869
00795	13978567	-0.133966	0.223359	-9.811454	-0.001826	0.001041	-0.004745
00796	13978617	-0.121719	0.202693	-9.812951	-0.001890	0.003243	-0.001501
00797	13978667	-0.133497	0.234858	-9.797796	-0.005053	0.002224	-0.001015
00798	13978717	-0.141365	0.237187	-9.804229	-0.003352	0.000862	-0.003141
00799	13978767	-0.136894	0.229070	-9.812634	-0.000222	0.001149	-0.000970
00800	13978817	-0.137082	0.238307	-9.804493	-0.006304	-0.000099	-0.004644
00801	13978867	-0.145490	0.236381	-9.812116	-0.006273	0.002328	-0.001877
00802	13978917	-0.144486	0.228094	-9.811643	-0.004400	0.001846	-0.000792
00803	13978967	-0.143903	0.236452	-9.798464	-0.005488	0.001991	-0.000533
00804	13979017	-0.139760	0.221565	-9.808068	0.001154	-0.001127	-0.003133
00805	13979067	-0.137508	0.223154	-9.809039	-0.003464	0.002542	-0.001816
00806	13979117	-0.130399	0.220615	-9.805719	-0.006840	0.002060	-0.001846
00807	13979167	-0.134765	0.228411	-9.806654	-0.007256	0.000793	-0.002234
00808	13979217	-0.144671	0.217265	-9.820033	-0.002680	0.005403	0.001786
00809	13979267	-0.135058	0.226566	-9.832544	-0.004116	0.001754	-0.002591
00810	13979317	-0.151462	0.242055	-9.829820	-0.005917	0.000944	-0.003198
00811	13979367	-0.131089	0.217237	-9.806191	-0.005350	0.000246	-0.002500
00812	13979417	-0.147656	0.224142	-9.807556	-0.003333	-0.002653	-0.000244
00813	13979467	-0.150507	0.236354	-9.814244	-0.005309	0.002119	-0.001878
00814	13979517	-0.148171	0.222960	-9.829596	0.000301	-0.000332	-0.001808
00815	13979567	-0.140490	0.237604	-9.824843	-0.005700	-0.000863	-0.003785
00816	13979617	-0.128779	0.235287	-9.822990	-0.003713	0.001541	0.000387
00817	13979667	-0.135437	0.202844	-9.814318	-0.004368	-0.002708	-0.003255
00818	13979717	-0.136611	0.232338	-9.836847	-0.004959	0.000126	0.000225
00819	13979767	-0.137534	0.231144	-9.833965	-0.005575	0.001305	-0.002653
00820	13979817	-0.152727	0.223636	-9.816630	-0.007003	0.002123	-0.001457
00821	13979867	-0.156076	0.246624	-9.806074	-0.005772	-0.002373	-0.000425
00822	13979917	-0.145366	0.235299	-9.803493	-0.005835	0.000594	-0.001690
00823	13979967	-0.143579	0.230319	-9.808527	-0.009300	0.001951	-0.001416
00824	13980017	-0.129265	0.229388	-9.824185	-0.004016	-0.001509	-0.003473
00825	13980067	-0.139581	0.236456	-9.816225	-0.002761	0.002716	-0.001177
00826	13980117	-0.173431	0.235256	-9.813652	-0.000972	-0.001518	-0.001713
00827	13980167	-0.154765	0.234153	-9.819021	-0.002532	0.001360	-0.001891
00828	13980217	-0.145932	0.223391	-9.832963	-0.005035	0.001647	0.000266
00829	13980267	-0.131291	0.232199	-9.808116	-0.003231	0.000322	0.000126
00830	13980317	-0.132815	0.221991	-9.802834	-0.000849	0.000978	0.001021
00831	13980367	-0.152587	0.227054	-9.815678	-0.003827	-0.001046	0.000023
00832	13980417	-0.147652	0.233790	-9.818817	-0.002844	0.000898	-0.004485
00833	13980467	-0.139948	0.219539	-9.801838	-0.007080	0.000346	-0.002908
00834	13980517	-0.121633	0.227418	-9.804808	-0.000237	0.001563	-0.002443
00835	13980567	-0.128040	0.226291	-9.809567	-0.001746	0.002661	-0.005410
00836	13980617	-0.154304	0.232235	-9.817825	-0.001498	0.000225	0.000732
00837	13980667	-0.144839	0.232680	-9.822905	-0.001568	0.005611	-0.000745
00838	13980717	-0.122598	0.215896	-9.821822	-0.003305	0.000545	-0.001478
00839	13980767	-0.138253	0.216482	-9.821258	-0.005944	0.004374	-0.000934
00840	13980817	-0.114775	0.208400	-9.811311	-0.001998	-0.001705	-0.004888
00841	13980867	-0.135533	0.218408	-9.800900	-0.000049	0.003862	-0.000761
00842	13980917	-0.128964	0.210067	-9.817223	-0.002643	0.002976	-0.001431
00843	13980967	-0.132938	0.219932	-9.824881	-0.005411	-0.001758	-0.002509
00844	13981017	-0.144494	0.231359	-9.807086	-0.004711	0.003651	-0.001901
00845	13981067	-0.139824	0.229847	-9.830365	-0.005525	0.002022	-0.001012
00846	13981117	-0.141349	0.242434	-9.804711	-0.003373	0.001933	0.001194
00847	13981167	-0.160776	0.232977	-9.807251	-0.003799	0.001985	-0.001718
00848	13981217	-0.158192	0.232207	-9.807024	-0.000247	-0.000016	0.000183
00849	13981267	-0.133292	0.212268	-9.811213	-0.002903	0.001936	-0.003009
00850	13981317	-0.143917	0.210497	-9.827464	-0.003094	0.001770	-0.003327
00851	13981367	-0.145179	0.211516	-9.817143	-0.002433	0.002530	0.000331
00852	13981417	-0.146053	0.223336	-9.810197	-0.005989	0.002462	-0.002483
00853	13981467	-0.142716	0.222193	-9.819081	-0.001680	0.000801	-0.000289
00854	13981517	-0.143481	0.248651	-9.823877	-0.002544	0.000814	-0.001570
00855	13981567	-0.148758	0.223410	-9.835105	-0.003145	0.004446	-0.004465
00856	13981617	-0.127652	0.237529	-9.814121	-0.002731	0.001746	-0.001086
00857	13981667	-0.126549	0.215630	-9.793273	0.000211	0.003803	-0.000536
00858	13981717	-0.143091	0.234189	-9.808777	-0.003357	0.002284	-0.001626
00859	13981767	-0.141098	0.239691	-9.812384	-0.001853	0.000244	-0.000037
00860	13981817	-0.136236	0.223090	-9.832294	-0.006057	0.000197	-0.004834
00861	13981867	-0.122655	0.242460	-9.835486	-0.003321	-0.001209	-0.004660
00862	13981917	-0.128464	0.238414	-9.806212	-0.004064	0.000300	-0.001509
00863	13981967	-0.140907	0.224628	-9.797997	-0.005978	0.002342	0.001073
00864	13982017	-0.128767	0.216497	-9.819150	-0.001579	0.003575	-0.003288
00865	13982067	-0.116935	0.221543	-9.815371	-0.003656	0.003401	-0.004184
00866	13982117	-0.128308	0.236702	-9.830418	-0.007544	0.000983	-0.001877
00867	13982167	-0.126310	0.222945	-9.815805	-0.004862	0.001226	-0.001468
00868	13982217	-0.149549	0.219466	-9.820724	-0.007363	0.002637	0.000055
00869	13982267	-0.126557	0.235690	-9.804069	-0.002003	0.000252	0.002846
00870	13982317	-0.135260	0.230882	-9.803541	-0.002954	0.000576	-0.001924
00871	13982367	-0.125029	0.212134	-9.819889	-0.005858	-0.001699	-0.000843
00872	13982417	-0.154029	0.229826	-9.811834	-0.004049	0.001886	-0.001852
00873	13982467	-0.150198	0.229761	-9.818810	-0.003331	0.000543	-0.000927
00874	13982517	-0.137886	0.235402	-9.817184	-0.004661	0.001972	-0.001110
00875	13982567	-0.150381	0.233425	-9.828627	-0.002795	0.002484	-0.003836
00876	13982617	-0.145093	0.236428	-9.817638	-0.003743	-0.001922	-0.002287
00877	13982667	-0.161686	0.241195	-9.788795	-0.001524	0.001024	-0.001093
00878	13982717	-0.129366	0.217248	-9.810035	-0.000916	-0.000256	-0.002541
00879	13982767	-0.148925	0.221751	-9.811380	-0.001271	0.001832	-0.003873
00880	13982817	-0.146065	0.218663	-9.806119	-0.003268	-0.000684	-0.001771
00881	13982867	-0.139974	0.225938	-9.806633	-0.004314	0.001140	0.000165
00882	13982917	-0.150112	0.244676	-9.815210	-0.005814	0.001049	-0.000503
00883	13982967	-0.143205	0.245270	-9.836343	-0.002278	-0.000799	-0.003085
00884	13983017	-0.131618	0.222074	-9.827525	-0.004628	0.003301	0.001556
00885	13983067	-0.136118	0.213136	-9.823188	-0.001936	0.001761	-0.002147
00886	13983117	-0.144009	0.222236	-9.816921	-0.006939	-0.002813	0.000089
00887	13983167	-0.159749	0.235481	-9.814209	-0.002523	0.000972	-0.003651
00888	13983217	-0.141254	0.223342	-9.810458	-0.005335	0.003889	-0.003693
00889	13983267	-0.128904	0.235778	-9.807411	-0.003500	0.000765	0.000100
00890	13983317	-0.132150	0.234940	-9.817461	-0.004161	0.001730	0.003278
00891	13983367	-0.140341	0.231495	-9.818376	-0.001651	0.004323	0.002903
00892	13983417	-0.129294	0.222068	-9.806685	-0.006562	-0.001748	-0.001479
00893	13983467	-0.135321	0.220958	-9.817438	-0.006042	0.000073	-0.001341
00894	13983517	-0.120294	0.216978	-9.798579	-0.002335	-0.003058	-0.002328
00895	13983567	-0.135626	0.237080	-9.803294	-0.003669	-0.000108	-0.000519
00896	13983617	-0.124413	0.222472	-9.805748	-0.003266	0.003614	-0.000273
00897	13983667	-0.131674	0.214452	-9.820333	-0.005206	0.000092	0.001058
00898	13983717	-0.134063	0.237018	-9.801151	-0.002889	-0.001549	-0.001837
00899	13983767	-0.146759	0.242167	-9.821215	-0.003175	0.000612	-0.000831
00900	13983817	-0.142725	0.219129	-9.816443	-0.003902	0.000113	-0.001282
00901	13983867	-0.134349	0.234179	-9.812176	-0.004556	0.002452	-0.003252
00902	13983917	-0.144472	0.246760	-9.804696	-0.004490	0.002584	-0.003158
00903	13983967	-0.136944	0.236064	-9.803778	-0.003157	0.002962	-0.002585
00904	13984017	-0.129906	0.228450	-9.822740	-0.005399	0.001123	0.000615
00905	13984067	-0.153784	0.230537	-9.805123	-0.008115	0.002974	-0.001705
00906	13984117	-0.134836	0.233907	-9.810491	-0.003555	0.000571	0.000449
00907	13984167	-0.140402	0.231679	-9.812864	-0.002660	0.003721	0.000691
00908	13984217	-0.129229	0.222372	-9.814837	-0.004555	0.000416	-0.003201
00909	13984267	-0.133652	0.221139	-9.831111	-0.004754	0.000539	-0.004998
00910	13984317	-0.138884	0.212703	-9.814071	-0.002531	-0.001602	0.000435
00911	13984367	-0.148429	0.217057	-9.807064	-0.006922	0.001939	0.001106
00912	13984417	-0.155585	0.241051	-9.802725	-0.004794	0.003359	-0.000106
00913	13984467	-0.139861	0.233895	-9.818382	-0.003715	-0.001820	-0.001293
00914	13984517	-0.127244	0.224725	-9.822752	-0.004933	0.001351	-0.002652
00915	13984567	-0.146455	0.211749	-9.816903	-0.004410	-0.000126	-0.002595
00916	13984617	-0.136226	0.205929	-9.813835	-0.004189	0.005371	-0.000742
00917	13984667	-0.145401	0.246411	-9.805650	-0.003644	0.003916	-0.005655
00918	13984717	-0.133346	0.224257	-9.808823	-0.001000	-0.000712	-0.002095
00919	13984767	-0.146352	0.233923	-9.836794	-0.005967	0.000556	-0.002620
00920	13984817	-0.147316	0.231530	-9.821928	-0.005621	0.001986	-0.001045
00921	13984867	-0.129431	0.232807	-9.828729	-0.002321	0.001947	-0.000124
00922	13984917	-0.136027	0.215429	-9.809043	-0.007882	0.001720	0.000143
00923	13984967	-0.124965	0.231275	-9.819655	-0.006375	0.001621	-0.000565
00924	13985017	-0.132696	0.202509	-9.824880	-0.000809	-0.000509	-0.000781
00925	13985067	-0.146363	0.227914	-9.820024	-0.003615	-0.000917	-0.001192
00926	13985117	-0.136188	0.221460	-9.822224	-0.003946	0.003792	-0.000848
00927	13985167	-0.116581	0.218810	-9.803880	-0.005098	0.001311	-0.004189
00928	13985217	-0.143011	0.237105	-9.814284	-0.002208	-0.001667	-0.000688
00929	13985267	-0.131708	0.215360	-9.814819	0.000018	0.000405	-0.003695
00930	13985317	-0.133776	0.220838	-9.800906	-0.002380	0.001589	-0.001987
00931	13985367	-0.147344	0.228345	-9.817142	-0.004351	0.000232	-0.001086
00932	13985417	-0.131438	0.238149	-9.811476	-0.003749	0.003403	-0.003284
00933	13985467	-0.134539	0.209563	-9.799697	-0.005651	0.001353	0.004783
00934	13985517	-0.148803	0.244271	-9.820724	-0.004385	0.005230	-0.004073
00935	13985567	-0.140931	0.242391	-9.814299	-0.005952	0.000201	-0.002910
00936	13985617	-0.134657	0.238363	-9.833505	0.000472	0.002547	-0.002053
00937	13985667	-0.121105	0.225341	-9.815594	-0.005060	0.001218	-0.002524
00938	13985717	-0.142990	0.249241	-9.798233	-0.005008	-0.000392	-0.002020
00939	13985767	-0.132220	0.240565	-9.827767	-0.004615	-0.000712	-0.003205
00940	13985817	-0.140968	0.233827	-9.812860	-0.004266	0.001393	-0.002266
00941	13985867	-0.141617	0.232685	-9.801349	-0.003138	-0.000845	-0.001770
00942	13985917	-0.155119	0.231514	-9.798892	-0.003120	-0.000034	0.001023
00943	13985967	-0.137835	0.239003	-9.803767	-0.005374	-0.000688	0.000194
00944	13986017	-0.130372	0.217727	-9.832795	-0.007153	0.002763	-0.003152
00945	13986067	-0.136211	0.221680	-9.821267	-0.004590	0.003549	-0.004210
00946	13986117	-0.148760	0.213610	-9.797472	-0.005585	-0.001305	-0.000867
00947	13986167	-0.151197	0.241114	-9.821675	-0.001378	0.002512	-0.000699
00948	13986217	-0.134899	0.227526	-9.811214	-0.006210	-0.003637	0.001715
00949	13986267	-0.133742	0.204661	-9.803061	-0.007315	0.001890	-0.002484
00950	13986317	-0.136658	0.229361	-9.813838	-0.001451	0.001638	-0.002018
00951	13986367	-0.132789	0.223884	-9.820806	-0.005319	-0.000857	-0.004265
00952	13986417	-0.118420	0.230563	-9.801951	-0.002655	0.000560	0.002786
00953	13986467	-0.144043	0.242059	-9.809493	-0.004268	-0.000640	-0.003012
00954	13986517	-0.149189	0.230774	-9.820486	-0.004465	0.002941	-0.000495
00955	13986567	-0.125025	0.229371	-9.837381	-0.003852	0.002760	-0.001461
00956	13986617	-0.152457	0.226703	-9.819745	-0.006277	0.004754	0.000353
00957	13986667	-0.139064	0.217392	-9.812147	-0.001550	0.002670	-0.002555
00958	13986717	-0.143569	0.239139	-9.822190	-0.003222	0.003095	-0.000626
00959	13986767	-0.130007	0.227741	-9.796615	-0.003482	0.004321	0.000308
00960	13986817	-0.127912	0.230203	-9.817004	-0.003127	-0.002199	-0.001489
00961	13986867	-0.137953	0.227736	-9.822467	-0.001255	0.000216	-0.004110
00962	13986917	-0.136513	0.223857	-9.804726	-0.005104	0.005866	-0.003493
00963	13986967	-0.142658	0.216044	-9.814527	-0.004984	0.000095	-0.001089
00964	13987017	-0.136516	0.236726	-9.805220	-0.000426	0.003856	0.000104
00965	13987067	-0.148060	0.230012	-9.816655	-0.003180	0.000643	-0.002272
00966	13987117	-0.131875	0.230340	-9.813147	-0.000979	0.000843	-0.000584
00967	13987167	-0.154242	0.250140	-9.816629	-0.005808	0.002787	-0.002225
00968	13987217	-0.134812	0.233467	-9.804744	-0.001895	0.001410	-0.002434
00969	13987267	-0.128755	0.234993	-9.807173	-0.001684	-0.001636	-0.005111
00970	13987317	-0.147361	0.246782	-9.814272	-0.002948	-0.000615	-0.001001
00971	13987367	-0.140148	0.239976	-9.803519	-0.006337	0.003430	-0.000361
00972	13987417	-0.149899	0.223021	-9.814487	-0.002488	0.001071	-0.000734
00973	13987467	-0.143462	0.221549	-9.804214	-0.002275	0.002434	-0.002366
00974	13987517	-0.156316	0.242258	-9.821411	-0.000990	0.001263	-0.000673
00975	13987567	-0.145674	0.234723	-9.824104	-0.005359	0.001732	-0.002360
00976	13987617	-0.139706	0.218636	-9.808784	-0.006246	-0.000474	0.000102
00977	13987667	-0.150011	0.248166	-9.818086	-0.008228	-0.000515	-0.001179
00978	13987717	-0.138484	0.237902	-9.810959	-0.004175	-0.000543	-0.003080
00979	13987767	-0.121627	0.209109	-9.814152	-0.001956	-0.000727	-0.000653
00980	13987817	-0.125367	0.211707	-9.811973	-0.003212	0.004871	-0.001292
00981	13987867	-0.133014	0.226987	-9.812181	-0.002032	0.001760	-0.000957
00982	13987917	-0.135302	0.216028	-9.807850	-0.004353	0.003366	-0.001458
00983	13987967	-0.137826	0.228324	-9.809999	-0.002421	0.001012	-0.001184
00984	13988017	-0.143724	0.238163	-9.804219	-0.005051	0.001188	-0.001627
00985	13988067	-0.136075	0.217495	-9.794906	-0.005130	0.002441	-0.004539
00986	13988117	-0.154497	0.233507	-9.835319	-0.004729	-0.003295	-0.003251
00987	13988167	-0.152005	0.240692	-9.823585	-0.002603	0.000422	-0.004202
00988	13988217	-0.115319	0.211809	-9.825204	-0.006051	0.004430	-0.002954
00989	13988267	-0.143132	0.222016	-9.835377	-0.002846	-0.001264	-0.005364
00990	13988317	-0.129586	0.227207	-9.804050	-0.003503	-0.000138	-0.000259
00991	13988367	-0.148271	0.226893	-9.811139	-0.007452	0.002310	-0.001484
00992	13988417	-0.147814	0.239322	-9.824097	-0.003470	0.002897	-0.000182
00993	13988467	-0.153887	0.228299	-9.803205	-0.002757	0.000159	-0.005481
00994	13988517	-0.130926	0.234493	-9.811233	-0.007571	0.004018	-0.000773
00995	13988567	-0.123946	0.227849	-9.809349	-0.005667	0.004469	-0.002698
00996	13988617	-0.133041	0.220671	-9.792527	-0.001330	0.000668	-0.004109
00997	13988667	-0.148001	0.224522	-9.817139	-0.002816	0.000130	-0.002501
00998	13988717	-0.130863	0.227909	-9.820101	-0.003981	0.000691	-0.001472
00999	13988767	-0.140968	0.213009	-9.808779	-0.001188	0.002219	-0.003777
01000	13988817	-0.142333	0.233188	-9.817884	-0.003804	0.003180	-0.000817
01001	13988867	-0.146566	0.225051	-9.817868	-0.004445	0.000168	-0.001346
01002	13988917	-0.114816	0.220864	-9.820904	-0.000050	0.001696	-0.001160
01003	13988967	-0.136487	0.221181	-9.808807	-0.001800	0.003607	-0.000533
01004	13989017	-0.124510	0.230155	-9.821574	-0.005150	-0.000750	-0.000451
01005	13989067	-0.123243	0.215905	-9.802885	-0.007112	-0.000560	-0.002149
01006	13989117	-0.137662	0.217411	-9.789623	-0.006529	-0.001643	-0.000484
01007	13989167	-0.129620	0.233393	-9.802369	-0.005994	0.000627	-0.000730
01008	13989217	-0.136137	0.220824	-9.830138	-0.002792	0.004324	-0.005523
01009	13989267	-0.139997	0.222253	-9.829638	-0.006702	0.002511	-0.004983
01010	13989317	-0.122285	0.216119	-9.815100	-0.005727	0.005603	-0.000288
01011	13989367	-0.134285	0.221788	-9.826553	-0.004199	0.003527	-0.002000
01012	13989417	-0.132759	0.222849	-9.818411	-0.002634	0.000425	-0.001025
01013	13989467	-0.123400	0.236406	-9.811270	-0.004587	0.000452	-0.003752
01014	13989517	-0.122465	0.222956	-9.814864	-0.005033	0.002413	-0.003738
01015	13989567	-0.130844	0.223553	-9.815544	-0.005216	0.001382	0.000042
01016	13989617	-0.136532	0.213433	-9.809520	-0.005676	-0.000896	-0.005032
01017	13989667	-0.135780	0.222987	-9.799950	-0.003627	-0.002366	-0.000270
01018	13989717	-0.145229	0.226595	-9.807799	-0.005516	0.000930	0.000683
01019	13989767	-0.137387	0.215175	-9.817900	-0.003052	0.001940	0.001386
01020	13989817	-0.136263	0.234582	-9.810008	-0.006550	0.001770	-0.003861
01021	13989867	-0.128146	0.231093	-9.810287	-0.004195	0.000040	-0.003275
01022	13989917	-0.148168	0.239429	-9.823850	-0.007019	0.000376	-0.003683
01023	13989967	-0.163204	0.244291	-9.820180	-0.003064	0.001539	-0.006505
01024	13990017	-0.145422	0.216060	-9.803249	-0.003608	-0.000109	-0.002220
01025	13990067	-0.136148	0.231300	-9.816955	-0.003555	0.003247	-0.003133
01026	13990117	-0.138511	0.228360	-9.809999	-0.005379	0.001577	0.000359
01027	13990167	-0.157973	0.222782	-9.815405	-0.005187	0.000284	-0.001732
01028	13990217	-0.139930	0.224726	-9.810706	-0.003824	0.001565	-0.003108
01029	13990267	-0.143641	0.218248	-9.806374	-0.002426	0.003214	-0.000154
01030	13990317	-0.140942	0.235243	-9.816943	-0.002164	0.001989	0.000479
01031	13990367	-0.147937	0.228739	-9.830796	-0.002783	0.002968	-0.004737
01032	13990417	-0.124499	0.240284	-9.827561	-0.006246	0.002525	-0.001299
01033	13990467	-0.136152	0.240238	-9.811932	-0.002831	-0.001521	-0.002776
01034	13990517	-0.151080	0.239859	-9.810170	-0.004417	0.001205	-0.001249
01035	13990567	-0.134790	0.211296	-9.807371	-0.005496	0.002353	0.001644
01036	13990617	-0.143257	0.237698	-9.807340	-0.003123	-0.000227	-0.002161
01037	13990667	-0.154294	0.237276	-9.791465	-0.001233	-0.001327	-0.002233
01038	13990717	-0.126817	0.211143	-9.826582	-0.001626	0.001186	-0.000168
01039	13990767	-0.139260	0.230086	-9.815987	-0.003143	0.002481	-0.002819
01040	13990817	-0.146693	0.235797	-9.812351	-0.002537	0.000591	-0.000746
01041	13990867	-0.131385	0.214803	-9.795885	-0.006852	-0.001650	-0.000203
01042	13990917	-0.138023	0.228499	-9.816470	-0.006659	0.001618	0.000043
01043	13990967	-0.131233	0.218139	-9.814340	-0.004368	0.005049	0.000434
01044	13991017	-0.144127	0.222182	-9.832011	-0.005132	0.000448	-0.001638
01045	13991067	-0.133598	0.207972	-9.806900	-0.004227	-0.001564	0.002768
01046	13991117	-0.139376	0.219396	-9.820299	-0.000482	-0.001157	-0.004221
01047	13991167	-0.138941	0.224208	-9.823173	0.000101	-0.000238	-0.002779
01048	13991217	-0.149908	0.230421	-9.826958	-0.004888	0.001138	0.001315
01049	13991267	-0.142774	0.221643	-9.810931	-0.004237	-0.000502	-0.000492
01050	13991317	-0.136704	0.209120	-9.793942	-0.003618	0.003414	-0.001083
01051	13991367	-0.141555	0.240945	-9.816931	-0.002251	0.000662	-0.000747
01052	13991417	-0.126311	0.208985	-9.823717	-0.003290	0.001160	-0.000616
01053	13991467	-0.135951	0.237841	-9.825112	-0.003043	0.000256	-0.002126
01054	13991517	-0.138285	0.231591	-9.818857	-0.004876	0.002646	-0.002362
01055	13991567	-0.137313	0.235475	-9.827497	-0.004703	0.002329	-0.000891
01056	13991617	-0.142377	0.223281	-9.836581	-0.004581	0.000722	0.001699
01057	13991667	-0.142464	0.229581	-9.806623	-0.001869	-0.000598	-0.002002
01058	13991717	-0.143296	0.234040	-9.827943	-0.004736	0.000162	-0.002344
01059	13991767	-0.128387	0.220997	-9.807402	-0.000905	0.002557	-0.001348
01060	13991817	-0.123117	0.214404	-9.813664	-0.005791	0.000076	-0.002858
01061	13991867	-0.129719	0.228106	-9.818428	-0.003898	0.000115	-0.000072
01062	13991917	-0.127127	0.208436	-9.830657	-0.005577	0.003440	-0.001942
01063	13991967	-0.128047	0.225176	-9.807651	-0.006816	0.001289	-0.001243
01064	13992017	-0.123098	0.210662	-9.812704	-0.008415	0.001230	-0.001207
01065	13992067	-0.155425	0.238581	-9.838433	-0.006498	-0.000871	-0.002503
01066	13992117	-0.144178	0.225615	-9.820507	-0.004822	0.000904	-0.002374
01067	13992167	-0.128938	0.224529	-9.820108	-0.002473	0.001432	-0.001321
01068	13992217	-0.131182	0.218118	-9.831600	-0.005374	-0.001276	-0.006036
01069	13992267	-0.144798	0.222491	-9.821465	-0.002483	0.002783	-0.002532
01070	13992317	-0.147353	0.222848	-9.811867	-0.006263	-0.000989	0.000314
01071	13992367	-0.134902	0.228749	-9.816488	-0.005037	0.001638	-0.001598
01072	13992417	-0.143905	0.227931	-9.798468	-0.006860	-0.001226	0.000670
01073	13992467	-0.152894	0.232759	-9.814721	-0.004353	0.000269	-0.000101
01074	13992517	-0.128826	0.234799	-9.814363	-0.006611	0.000611	-0.004132
01075	13992567	-0.149876	0.243380	-9.822886	-0.005110	0.001965	-0.001595
01076	13992617	-0.123795	0.216726	-9.811264	-0.005668	0.002538	0.000520
01077	13992667	-0.144853	0.230721	-9.830574	-0.005600	0.003115	-0.003671
01078	13992717	-0.131747	0.230448	-9.797574	-0.006226	0.000781	-0.002690
01079	13992767	-0.149791	0.246773	-9.799873	-0.003762	0.000989	-0.000834
01080	13992817	-0.139099	0.223112	-9.820296	-0.006803	0.003838	-0.002383
01081	13992867	-0.129700	0.206913	-9.807636	-0.006641	0.001777	-0.001179
01082	13992917	-0.121139	0.227290	-9.809846	0.001355	0.000785	-0.002168
01083	13992967	-0.145384	0.223911	-9.803491	-0.003552	0.003085	-0.003999
01084	13993017	-0.140810	0.224769	-9.823167	-0.005908	0.001593	-0.002654
01085	13993067	-0.155199	0.243771	-9.829088	-0.001740	0.004937	-0.000308
01086	13993117	-0.149404	0.229925	-9.816410	0.000211	0.005605	-0.004378
01087	13993167	-0.118404	0.225804	-9.818006	-0.002795	0.003884	0.000327
01088	13993217	-0.123323	0.223749	-9.836673	-0.003735	0.000561	-0.004815
01089	13993267	-0.124671	0.222139	-9.806945	-0.006916	0.002450	-0.001977
01090	13993317	-0.155946	0.233104	-9.797447	-0.003035	-0.003229	-0.003229
01091	13993367	-0.149193	0.218071	-9.824078	-0.006163	0.003947	-0.001457
01092	13993417	-0.134292	0.215324	-9.819360	-0.006671	0.001775	-0.001240
01093	13993467	-0.135884	0.219362	-9.794192	-0.002780	0.001334	0.002206
01094	13993517	-0.157234	0.224709	-9.821166	-0.003729	0.001862	-0.001086
01095	13993567	-0.143534	0.215567	-9.817162	-0.002453	0.002653	-0.004198
01096	13993617	-0.144976	0.235089	-9.832974	-0.006660	-0.000875	-0.002697
01097	13993667	-0.140432	0.235160	-9.810946	-0.002568	0.003621	-0.001690
01098	13993717	-0.148500	0.227811	-9.828399	-0.005436	-0.000713	0.001468
01099	13993767	-0.130435	0.225163	-9.795651	-0.004702	0.002967	-0.004862
01100	13993817	-0.127265	0.215986	-9.798303	-0.005043	0.000676	-0.001539
01101	13993867	-0.150084	0.216231	-9.802504	-0.003916	0.001660	-0.000926
01102	13993917	-0.125895	0.218703	-9.797359	-0.001036	0.000386	-0.003218
01103	13993967	-0.151207	0.218924	-9.824070	-0.005131	0.002415	-0.003996
01104	13994017	-0.146726	0.235901	-9.817381	-0.000925	0.002299	0.001308
01105	13994067	-0.150908	0.228894	-9.811377	-0.002994	0.001005	0.000476
01106	13994117	-0.133720	0.221024	-9.806417	-0.005368	0.001890	-0.003234
01107	13994167	-0.118215	0.208902	-9.822791	-0.005661	0.000951	-0.002726
01108	13994217	-0.145946	0.239068	-9.834886	-0.003809	0.000279	0.000058
01109	13994267	-0.134108	0.223975	-9.828468	-0.005626	0.001953	-0.003038
01110	13994317	-0.134244	0.210938	-9.813365	-0.005339	0.002892	-0.004346
01111	13994367	-0.116236	0.217723	-9.816095	-0.000139	0.001239	-0.004441
01112	13994417	-0.151050	0.237718	-9.811850	-0.002475	0.001624	-0.002021
01113	13994467	-0.139690	0.234383	-9.826283	-0.007876	0.003399	-0.002670
01114	13994517	-0.144602	0.232291	-9.802289	-0.007751	0.000626	-0.001471
01115	13994567	-0.135896	0.195455	-9.827739	-0.004435	0.000948	0.001507
01116	13994617	-0.125800	0.222198	-9.812694	-0.006814	0.002994	-0.004535
01117	13994667	-0.128564	0.210666	-9.811721	-0.002226	0.000627	-0.003152
01118	13994717	-0.150757	0.222223	-9.823833	-0.003866	0.001851	-0.003684
01119	13994767	-0.142699	0.234821	-9.803267	-0.002520	0.002079	-0.001315
01120	13994817	-0.147185	0.238699	-9.826491	-0.005706	0.000833	0.001541
01121	13994867	-0.139165	0.232937	-9.832041	-0.002885	0.002360	-0.001536
01122	13994917	-0.125833	0.216606	-9.806939	-0.003609	0.000121	-0.000554
01123	13994967	-0.139869	0.224690	-9.806155	-0.004128	0.003208	-0.002908
01124	13995017	-0.154011	0.237125	-9.805847	-0.005230	-0.001427	-0.001901
01125	13995067	-0.134361	0.225891	-9.830628	-0.004693	0.001041	0.001027
01126	13995117	-0.129817	0.226292	-9.819387	-0.007283	0.004762	-0.004236
01127	13995167	-0.129555	0.211087	-9.823218	-0.004804	0.004258	-0.003091
01128	13995217	-0.138211	0.221191	-9.804481	-0.005238	0.002931	-0.002361
01129	13995267	-0.136526	0.219577	-9.809043	-0.003518	0.001153	-0.001574
01130	13995317	-0.139227	0.230918	-9.816218	-0.008401	0.003238	0.001723
01131	13995367	-0.154614	0.238511	-9.825496	-0.002065	-0.001343	-0.002425
01132	13995417	-0.161212	0.235169	-9.821386	-0.006292	-0.000121	-0.001922
01133	13995467	-0.138939	0.208331	-9.820292	-0.003471	0.001904	0.001759
01134	13995517	-0.146188	0.226086	-9.812588	0.001330	-0.000570	-0.002880
01135	13995567	-0.139662	0.219090	-9.808064	-0.003519	0.002091	-0.001308
01136	13995617	-0.161076	0.237743	-9.805330	-0.004566	0.001908	-0.003231
01137	13995667	-0.150386	0.231908	-9.818321	-0.005737	0.003501	-0.002260
01138	13995717	-0.144946	0.226917	-9.816195	-0.003891	0.001922	-0.001506
01139	13995767	-0.139663	0.230630	-9.820532	-0.004318	0.003205	-0.001465
01140	13995817	-0.138588	0.214083	-9.821253	-0.005175	0.000436	-0.005513
01141	13995867	-0.127466	0.219302	-9.819392	-0.010096	-0.000381	-0.002335
01142	13995917	-0.136919	0.233557	-9.819346	-0.006741	0.000969	-0.001180
01143	13995967	-0.135873	0.218153	-9.796105	-0.002816	0.001033	-0.003114
01144	13996017	-0.134097	0.240559	-9.815057	-0.004209	0.003018	0.000297
01145	13996067	-0.137582	0.233119	-9.823177	-0.007262	0.001315	-0.000635
01146	13996117	-0.130643	0.226183	-9.814110	-0.005574	0.001374	-0.002176
01147	13996167	-0.155520	0.232191	-9.825485	-0.005135	-0.001030	0.002046
01148	13996217	-0.128174	0.218375	-9.804772	-0.002246	0.003467	-0.001920
01149	13996267	-0.153664	0.215134	-9.809673	-0.003747	0.001216	-0.001828
01150	13996317	-0.145059	0.219830	-9.817391	-0.002741	0.000777	-0.001580
01151	13996367	-0.152355	0.226748	-9.810879	-0.001533	0.002097	-0.000961
01152	13996417	-0.151570	0.226053	-9.826703	-0.002246	0.001598	0.000995
01153	13996467	-0.149114	0.238753	-9.812819	-0.006411	0.002785	-0.000788
01154	13996517	-0.143404	0.233951	-9.820992	-0.004942	-0.000488	-0.003052
01155	13996567	-0.142752	0.225181	-9.799908	-0.008727	-0.004068	0.000944
01156	13996617	-0.155967	0.238912	-9.816382	-0.003923	0.002921	-0.001050
01157	13996667	-0.137929	0.217959	-9.816458	-0.000010	0.001048	-0.005493
01158	13996717	-0.142421	0.229633	-9.804943	-0.005452	0.002934	0.001038
01159	13996767	-0.140785	0.225146	-9.828438	-0.000452	0.001471	0.000697
01160	13996817	-0.133780	0.229055	-9.820565	-0.004446	-0.000991	-0.000875
01161	13996867	-0.133729	0.216987	-9.827036	-0.003119	0.003746	-0.001753
01162	13996917	-0.130099	0.210534	-9.814108	-0.004949	-0.003129	0.000939
01163	13996967	-0.145927	0.225427	-9.807558	-0.004873	0.000516	-0.002151
01164	13997017	-0.136125	0.229467	-9.823658	-0.000849	0.000782	-0.000111
01165	13997067	-0.137993	0.238339	-9.797053	-0.004356	0.003496	-0.001687
01166	13997117	-0.112061	0.224356	-9.807492	-0.002998	0.000869	-0.001837
01167	13997167	-0.143101	0.234081	-9.813566	-0.006491	0.001070	-0.000121
01168	13997217	-0.136705	0.230966	-9.825343	-0.003933	0.004442	0.001074
01169	13997267	-0.132870	0.210012	-9.811942	-0.005104	0.000210	-0.007184
01170	13997317	-0.127317	0.226912	-9.817720	-0.003497	0.000508	-0.000551
01171	13997367	-0.140716	0.240449	-9.821249	-0.007129	0.004121	-0.002092
01172	13997417	-0.167928	0.241798	-9.814884	-0.003462	0.003576	-0.001942
01173	13997467	-0.150111	0.220968	-9.818563	-0.002097	-0.001471	-0.002037
01174	13997517	-0.136398	0.218563	-9.819592	-0.005013	0.004033	-0.001908
01175	13997567	-0.151292	0.224807	-9.822878	-0.004583	-0.000413	0.000025
01176	13997617	-0.123290	0.223943	-9.822300	-0.002997	-0.002325	-0.000919
01177	13997667	-0.111882	0.204973	-9.806049	-0.005289	-0.000426	-0.000104
01178	13997717	-0.133594	0.211694	-9.808576	-0.001033	0.000259	-0.003861
01179	13997767	-0.123704	0.200752	-9.808864	-0.002927	0.001552	-0.002057
01180	13997817	-0.136895	0.218642	-9.793943	-0.004207	0.000563	-0.001959
01181	13997867	-0.143044	0.227514	-9.819322	-0.005329	-0.000267	-0.002187
01182	13997917	-0.136394	0.209290	-9.821018	-0.003961	-0.001083	-0.000527
01183	13997967	-0.138223	0.216506	-9.810233	-0.003105	-0.001004	-0.001905
01184	13998017	-0.132714	0.236612	-9.814578	-0.004491	-0.001474	-0.000173
01185	13998067	-0.143757	0.241705	-9.839448	-0.001345	0.002158	-0.002922
01186	13998117	-0.136980	0.236728	-9.813363	-0.003856	0.001564	-0.003073
01187	13998167	-0.147824	0.227142	-9.815701	-0.004650	-0.000381	-0.001065
01188	13998217	-0.137202	0.228838	-9.823415	-0.004855	0.004070	-0.001587
01189	13998267	-0.131739	0.216585	-9.806431	-0.006229	0.000916	0.000159
01190	13998317	-0.165494	0.240272	-9.817290	-0.007342	0.004860	-0.001924
01191	13998367	-0.149408	0.231710	-9.792445	-0.004073	0.001464	-0.002276
01192	13998417	-0.152797	0.237088	-9.788593	-0.004967	0.002714	0.000843
01193	13998467	-0.119733	0.224736	-9.807930	-0.003175	0.001709	-0.000069
01194	13998517	-0.151308	0.238072	-9.819278	-0.004772	-0.000679	-0.002509
01195	13998567	-0.134899	0.215714	-9.800180	-0.003733	0.000890	-0.001253
01196	13998617	-0.130305	0.237524	-9.815552	-0.001794	0.002082	-0.004201
01197	13998667	-0.140952	0.218526	-9.819565	-0.003225	0.003098	0.000104
01198	13998717	-0.145739	0.229041	-9.814508	-0.003406	-0.001267	-0.000657
01199	13998767	-0.132495	0.217386	-9.812656	-0.007518	-0.000755	-0.000740
01200	13998817	-0.130309	0.209750	-9.797332	-0.003745	0.001081	-0.002340
01201	13998867	-0.143606	0.226813	-9.807810	-0.003393	-0.001781	-0.000180
01202	13998917	-0.137515	0.227253	-9.811190	-0.005450	0.004868	-0.000618
01203	13998967	-0.112904	0.219271	-9.816835	-0.003463	0.002447	-0.000831
01204	13999017	-0.130857	0.217172	-9.813869	-0.005342	-0.002072	-0.000719
01205	13999067	-0.146657	0.254795	-9.835121	-0.007092	-0.001106	-0.001095
01206	13999117	-0.110018	0.214000	-9.814206	-0.010540	0.001707	-0.001074
01207	13999167	-0.128319	0.196760	-9.830173	-0.004517	0.000233	-0.002380
01208	13999217	-0.131267	0.218117	-9.818417	-0.002644	0.000683	-0.002830
01209	13999267	-0.129841	0.202730	-9.818660	-0.003336	0.001352	-0.001349
01210	13999317	-0.141752	0.220706	-9.823396	-0.003152	0.000640	-0.002350
01211	13999367	-0.145250	0.221647	-9.821706	-0.006168	0.004143	-0.002287
01212	13999417	-0.141567	0.225231	-9.820763	-0.006404	0.001197	-0.001854
01213	13999467	-0.132421	0.220773	-9.823443	-0.001816	0.000992	0.000793
01214	13999517	-0.136536	0.224884	-9.812400	-0.004871	0.002620	-0.000474
01215	13999567	-0.141649	0.211607	-9.813572	-0.005446	0.000277	-0.001959
01216	13999617	-0.138258	0.221426	-9.809513	-0.003235	0.001291	-0.001639
01217	13999667	-0.139950	0.217955	-9.818618	-0.002465	0.003301	-0.002209
01218	13999717	-0.135864	0.231131	-9.814802	-0.006040	0.004914	-0.004269
01219	13999767	-0.150413	0.242075	-9.818806	-0.003769	-0.001049	-0.002162
01220	13999817	-0.140811	0.228647	-9.792970	-0.002122	0.001270	-0.003951
01221	13999867	-0.144410	0.226509	-9.817160	-0.004593	0.000547	-0.003718
01222	13999917	-0.144878	0.217854	-9.803722	-0.008020	0.003202	0.000059
01223	13999967	-0.138988	0.218748	-9.807346	-0.001150	-0.001810	-0.000723
01224	14000017	-0.156794	0.239675	-9.808465	-0.002570	0.002548	-0.003513
01225	14000067	-0.153459	0.244522	-9.826454	-0.003349	-0.000045	-0.001317
01226	14000117	-0.141048	0.238209	-9.821250	-0.004376	-0.000767	0.001280
01227	14000167	-0.147879	0.231103	-9.809469	-0.004985	-0.000110	-0.004645
01228	14000217	-0.156370	0.245232	-9.801042	-0.003776	0.002533	0.000333
01229	14000267	-0.131032	0.213599	-9.806918	-0.001144	0.000900	-0.002506
01230	14000317	-0.116073	0.230324	-9.817781	-0.000272	0.003984	-0.000757
01231	14000367	-0.147727	0.227512	-9.825051	-0.004302	0.001076	0.001643
01232	14000417	-0.125889	0.210051	-9.806697	-0.008252	0.003587	0.000925
01233	14000467	-0.123961	0.217685	-9.803835	-0.008727	-0.000340	-0.005887
01234	14000517	-0.146712	0.206489	-9.830324	-0.004620	0.001676	-0.002714
01235	14000567	-0.140796	0.221659	-9.819087	-0.006966	0.000923	-0.001656
01236	14000617	-0.136689	0.222250	-9.813601	-0.003155	0.005291	0.000441
01237	14000667	-0.104241	0.211027	-9.808492	-0.006041	-0.000129	-0.004165
01238	14000717	-0.147127	0.242159	-9.809722	-0.001029	-0.000782	-0.003153
01239	14000767	-0.130466	0.232361	-9.820826	-0.003315	0.000859	-0.001309
01240	14000817	-0.145915	0.224418	-9.820745	-0.004123	-0.001796	0.000280
01241	14000867	-0.117369	0.214535	-9.827357	0.000285	-0.000889	-0.003066
01242	14000917	-0.133286	0.211742	-9.826075	-0.001102	0.000576	-0.002600
01243	14000967	-0.139353	0.217177	-9.807351	-0.004700	0.002387	0.000077
01244	14001017	-0.149027	0.226752	-9.807304	-0.004160	0.002359	-0.002005
01245	14001067	-0.136574	0.243284	-9.809287	-0.003196	0.001352	0.000130
01246	14001117	-0.146347	0.244193	-9.799656	-0.004201	0.003883	-0.000816
01247	14001167	-0.149477	0.239345	-9.805626	-0.004541	0.000289	-0.000476
01248	14001217	-0.160045	0.223535	-9.832411	-0.004155	0.001072	-0.002041
01249	14001267	-0.160591	0.239320	-9.802935	-0.001445	0.001639	-0.001058
01250	14001317	-0.125844	0.235391	-9.787289	-0.007265	0.002405	-0.001616
01251	14001367	-0.155854	0.239662	-9.807037	-0.001915	0.002243	-0.001146
01252	14001417	-0.166228	0.230633	-9.825912	-0.002874	0.004327	-0.000781
01253	14001467	-0.141308	0.242738	-9.808539	-0.003155	0.002995	-0.001206
01254	14001517	-0.152888	0.229062	-9.810654	-0.002208	-0.001099	-0.006069
01255	14001567	-0.139499	0.240980	-9.811429	-0.005269	-0.000240	-0.002722
01256	14001617	-0.133110	0.215341	-9.824166	-0.002865	-0.000229	-0.001769
01257	14001667	-0.146075	0.225900	-9.794863	-0.005095	-0.002499	-0.001360
01258	14001717	-0.142911	0.222202	-9.821954	0.000367	0.003533	-0.005858
01259	14001767	-0.136173	0.224033	-9.811207	-0.000578	-0.000842	-0.003027
01260	14001817	-0.148027	0.225809	-9.798920	-0.005107	0.003089	-0.000652
01261	14001867	-0.116607	0.234018	-9.815624	-0.007362	0.002265	-0.004276
01262	14001917	-0.135023	0.215341	-9.821989	-0.004572	0.000226	-0.000540
01263	14001967	-0.147173	0.226532	-9.816420	-0.008570	0.006548	0.000431
01264	14002017	-0.121760	0.223386	-9.813909	-0.003739	0.002437	0.001227
01265	14002067	-0.129528	0.243477	-9.817239	-0.002057	-0.002411	-0.000724
01266	14002117	-0.142112	0.228939	-9.818368	-0.005189	0.000076	-0.005735
01267	14002167	-0.146109	0.231132	-9.815466	-0.002178	0.004200	-0.004248
01268	14002217	-0.137902	0.222769	-9.795377	-0.005163	0.000765	0.000490
01269	14002267	-0.136460	0.220024	-9.824620	-0.002550	0.001968	-0.002079
01270	14002317	-0.114763	0.220317	-9.824018	-0.004118	0.001909	-0.002618
01271	14002367	-0.150381	0.227991	-9.808494	-0.004094	0.003628	0.001397
01272	14002417	-0.127490	0.217541	-9.808371	-0.004583	0.001007	0.003181
01273	14002467	-0.118657	0.212469	-9.811532	-0.003638	-0.001115	-0.001708
01274	14002517	-0.142644	0.224657	-9.819567	-0.004360	0.003549	-0.003124
01275	14002567	-0.110855	0.207499	-9.815885	-0.009091	0.001471	-0.001072
01276	14002617	-0.127831	0.221662	-9.817956	-0.001830	0.004765	0.000498
01277	14002667	-0.132337	0.210621	-9.805945	-0.005040	0.003665	-0.004692
01278	14002717	-0.155616	0.243487	-9.822377	-0.004457	0.000252	-0.004962
01279	14002767	-0.155490	0.224683	-9.800562	-0.004568	-0.000741	0.000416
01280	14002817	-0.147973	0.214966	-9.809223	-0.006350	0.000675	-0.002010
01281	14002867	-0.151523	0.229982	-9.822869	-0.002515	0.003904	-0.003415
01282	14002917	-0.152332	0.226964	-9.813516	-0.008365	0.000675	-0.002325
01283	14002967	-0.128490	0.228190	-9.812435	-0.006601	0.003137	0.003643
01284	14003017	-0.144881	0.226666	-9.791507	-0.008354	0.000516	-0.001618
01285	14003067	-0.145162	0.222874	-9.808283	-0.007015	0.001604	-0.002064
01286	14003117	-0.128684	0.225234	-9.818675	-0.003400	0.001469	-0.002497
01287	14003167	-0.130680	0.229831	-9.818903	-0.006058	0.000586	-0.002492
01288	14003217	-0.129804	0.223053	-9.801887	-0.002633	0.007107	0.000832
01289	14003267	-0.137272	0.228939	-9.820306	-0.002366	0.002428	-0.000120
01290	14003317	-0.136930	0.237058	-9.818634	-0.005362	0.002152	0.000655
01291	14003367	-0.150228	0.251376	-9.815453	-0.006176	0.001257	-0.002778
01292	14003417	-0.134322	0.216536	-9.813610	-0.002274	0.000298	-0.002667
01293	14003467	-0.154539	0.238893	-9.832445	-0.002814	0.000260	-0.000639
01294	14003517	-0.126578	0.239010	-9.801434	-0.003599	0.001854	-0.002366
01295	14003567	-0.141569	0.230823	-9.832271	-0.003922	0.000750	-0.001887
01296	14003617	-0.121301	0.223027	-9.820631	-0.005633	-0.000496	0.001538
01297	14003667	-0.137002	0.229424	-9.822224	-0.001975	0.003112	-0.002268
01298	14003717	-0.128478	0.204497	-9.808124	-0.004663	0.001194	-0.000123
01299	14003767	-0.145786	0.215994	-9.813553	-0.004818	0.000933	-0.001626
01300	14003817	-0.131645	0.210805	-9.822968	-0.001909	-0.001215	-0.002033
01301	14003867	-0.132338	0.235953	-9.820331	-0.003608	0.002246	0.000906
01302	14003917	-0.139558	0.229554	-9.807354	-0.006225	0.000875	-0.001530
01303	14003967	-0.136518	0.228223	-9.797302	-0.006168	0.001035	-0.001784
01304	14004017	-0.133263	0.224139	-9.812899	-0.002158	-0.001150	0.001752
01305	14004067	-0.149062	0.222876	-9.801317	-0.004910	-0.001265	-0.000198
01306	14004117	-0.139636	0.228431	-9.821970	-0.009923	0.002521	-0.001542
01307	14004167	-0.145042	0.224603	-9.832486	-0.002743	0.000966	-0.000448
01308	14004217	-0.140603	0.222555	-9.820292	-0.004605	0.002420	-0.001428
01309	14004267	-0.151393	0.228759	-9.814724	-0.005673	0.000723	0.000007
01310	14004317	-0.128209	0.231880	-9.802616	-0.001603	-0.000658	-0.001489
01311	14004367	-0.123527	0.213772	-9.821093	-0.004967	0.001609	0.000136
01312	14004417	-0.151833	0.232073	-9.832215	-0.003177	0.000504	-0.002499
01313	14004467	-0.138519	0.213314	-9.831560	-0.004360	0.001355	-0.003774
01314	14004517	-0.130169	0.211428	-9.819140	-0.010507	0.001802	-0.000232
01315	14004567	-0.127045	0.208198	-9.817956	-0.004810	0.001509	-0.001117
01316	14004617	-0.138876	0.213959	-9.814784	-0.004841	0.000411	-0.002591
01317	14004667	-0.133065	0.230514	-9.809540	-0.001974	0.001141	0.000386
01318	14004717	-0.143405	0.220466	-9.816202	-0.000949	0.003029	-0.003231
01319	14004767	-0.150405	0.227342	-9.818806	-0.001407	0.000185	-0.001420
01320	14004817	-0.141708	0.231168	-9.852880	-0.006250	-0.000650	-0.004359
01321	14004867	-0.144508	0.231983	-9.817393	-0.004822	0.002161	-0.001432
01322	14004917	-0.159974	0.222822	-9.822829	-0.004146	-0.002251	-0.000875
01323	14004967	-0.121850	0.203009	-9.814625	-0.004542	0.000962	-0.003906
01324	14005017	-0.133350	0.210910	-9.797791	-0.005265	0.001993	0.000588
01325	14005067	-0.140883	0.224737	-9.818613	-0.007090	-0.002077	0.000058
01326	14005117	-0.161747	0.236199	-9.816113	-0.005165	0.000634	-0.002264
01327	14005167	-0.125840	0.209965	-9.813641	-0.008190	0.003587	0.000701
01328	14005217	-0.144947	0.229723	-9.811401	-0.006048	0.001556	-0.000532
01329	14005267	-0.146837	0.218772	-9.813787	-0.003463	-0.001532	-0.002188
01330	14005317	-0.133273	0.215296	-9.826069	-0.001422	0.003830	-0.002326
01331	14005367	-0.150252	0.219102	-9.817119	-0.004965	0.003606	-0.002316
01332	14005417	-0.140305	0.232989	-9.805429	-0.004324	0.002389	-0.003480
01333	14005467	-0.144871	0.226484	-9.817871	-0.003655	0.000565	-0.000735
01334	14005517	-0.127891	0.217229	-9.827772	-0.008930	0.000045	-0.003771
01335	14005567	-0.164265	0.238956	-9.791411	-0.006336	0.001717	0.001843
01336	14005617	-0.151722	0.228583	-9.804661	-0.006512	-0.001167	-0.001506
01337	14005667	-0.140437	0.230971	-9.813109	-0.003961	0.000005	-0.002598
01338	14005717	-0.145071	0.217866	-9.810919	-0.005747	0.002112	0.000178
01339	14005767	-0.129673	0.219085	-9.805004	-0.001380	-0.000558	-0.000976
01340	14005817	-0.154540	0.232919	-9.811829	-0.003666	0.001920	-0.001430
01341	14005867	-0.140343	0.216914	-9.809742	-0.003522	0.000178	-0.002882
01342	14005917	-0.139408	0.207611	-9.831553	-0.007923	-0.001124	-0.000127
01343	14005967	-0.125381	0.227507	-9.820846	-0.003608	0.001082	-0.002176
01344	14006017	-0.141203	0.235237	-9.825803	-0.005363	-0.002013	0.001049
01345	14006067	-0.147699	0.248931	-9.814512	-0.004877	-0.003526	-0.002357
01346	14006117	-0.116027	0.202348	-9.827599	-0.004175	-0.000618	-0.005390
01347	14006167	-0.129399	0.229724	-9.797820	-0.006214	0.000651	0.001129
01348	14006217	-0.138807	0.246181	-9.805443	-0.007616	0.001036	-0.005114
01349	14006267	-0.139344	0.217253	-9.833238	-0.001849	-0.002351	-0.004699
01350	14006317	-0.126995	0.203500	-9.818676	-0.003997	0.000974	-0.004195
01351	14006367	-0.125559	0.221887	-9.808379	-0.005833	0.004082	0.002494
01352	14006417	-0.146382	0.227858	-9.814751	-0.005214	0.001214	-0.001982
01353	14006467	-0.150312	0.237142	-9.812333	-0.000218	0.001373	0.000862
01354	14006517	-0.148724	0.231549	-9.833670	-0.002187	-0.000576	-0.002673
01355	14006567	-0.130111	0.246935	-9.828975	-0.001712	-0.000274	-0.001868
01356	14006617	-0.131114	0.219142	-9.805955	-0.003486	-0.001758	-0.002002
01357	14006667	-0.142175	0.232322	-9.809021	-0.003818	0.001692	-0.001305
01358	14006717	-0.122213	0.229961	-9.811041	-0.004283	-0.000803	-0.000644
01359	14006767	-0.132653	0.235246	-9.819612	-0.006350	0.000805	-0.002491
01360	14006817	-0.129785	0.219121	-9.806201	-0.002623	0.004426	-0.001263
01361	14006867	-0.134220	0.219431	-9.801629	-0.001965	0.002150	0.002635
01362	14006917	-0.138274	0.230943	-9.808318	-0.004666	0.004190	-0.003183
01363	14006967	-0.133152	0.230982	-9.805705	-0.005712	0.000884	-0.001852
01364	14007017	-0.142874	0.236671	-9.815727	-0.002523	0.002165	-0.001115
01365	14007067	-0.136071	0.235714	-9.827742	-0.002266	0.004270	-0.001295
01366	14007117	-0.146447	0.232252	-9.811395	-0.003071	0.003348	-0.002357
01367	14007167	-0.147020	0.236179	-9.816911	-0.004169	-0.001773	-0.003438
01368	14007217	-0.143508	0.225137	-9.816199	-0.007069	0.001248	-0.000692
01369	14007267	-0.141051	0.238817	-9.814301	-0.003727	-0.000209	0.000478
01370	14007317	-0.148973	0.237937	-9.792930	-0.003766	0.000848	-0.003070
01371	14007367	-0.146242	0.226589	-9.788149	-0.000097	0.002331	-0.003781
01372	14007417	-0.134598	0.222320	-9.810490	-0.004956	0.003480	-0.000332
01373	14007467	-0.142941	0.231999	-9.834417	-0.005230	0.002761	-0.003092
01374	14007517	-0.143869	0.224321	-9.814758	-0.004521	-0.002749	-0.003253
01375	14007567	-0.140407	0.237596	-9.791775	-0.006390	0.000869	-0.003130
01376	14007617	-0.145222	0.226945	-9.809004	-0.000640	0.002158	-0.003811
01377	14007667	-0.137934	0.228297	-9.835164	-0.005074	0.002025	-0.000821
01378	14007717	-0.145991	0.221415	-9.829612	-0.003592	0.000698	0.000649
01379	14007767	-0.152969	0.239326	-9.798179	-0.001903	0.004056	0.000465
01380	14007817	-0.141475	0.239514	-9.820284	-0.000347	0.002403	0.001347
01381	14007867	-0.145156	0.233297	-9.830330	-0.003795	0.002079	-0.000022
01382	14007917	-0.141811	0.229406	-9.817172	-0.005721	0.004105	-0.003275
01383	14007967	-0.139508	0.230996	-9.823647	-0.008004	-0.000379	0.000681
01384	14008017	-0.137749	0.227549	-9.832285	-0.004711	-0.000420	0.000384
01385	14008067	-0.131305	0.230964	-9.827765	0.000572	0.002674	0.000193
01386	14008117	-0.141198	0.224793	-9.824360	-0.005222	0.003768	-0.000588
01387	14008167	-0.133093	0.231587	-9.804029	-0.003923	0.003307	0.000846
01388	14008217	-0.135061	0.228288	-9.801869	-0.004672	-0.001715	-0.000492
01389	14008267	-0.118040	0.202095	-9.829267	-0.003155	0.002762	-0.003455
01390	14008317	-0.134019	0.212121	-9.814087	-0.004453	0.000257	-0.002116
01391	14008367	-0.132673	0.226550	-9.803558	0.000498	0.000408	-0.004018
01392	14008417	-0.136056	0.221405	-9.821991	-0.002048	-0.001795	-0.001556
01393	14008467	-0.135166	0.226703	-9.838526	-0.003988	0.003878	-0.003860
01394	14008517	-0.145590	0.242361	-9.831053	-0.006378	-0.000588	-0.003972
01395	14008567	-0.136341	0.229927	-9.820550	-0.003150	0.002632	-0.003993
01396	14008617	-0.123465	0.224408	-9.821096	-0.004312	0.000099	-0.000672
01397	14008667	-0.141412	0.224012	-9.793444	-0.003657	0.001822	-0.000887
01398	14008717	-0.151568	0.217732	-9.810650	-0.002517	-0.000258	-0.003532
01399	14008767	-0.127754	0.232995	-9.825623	-0.003326	0.002082	-0.002366
01400	14008817	-0.148317	0.233690	-9.826240	-0.003861	-0.001383	-0.003660
01401	14008867	-0.132726	0.214699	-9.826556	-0.005438	0.004307	-0.002859
01402	14008917	-0.125584	0.209468	-9.825871	-0.002083	0.003102	-0.005247
01403	14008967	-0.146630	0.213928	-9.816661	-0.006418	0.002640	-0.003951
01404	14009017	-0.152745	0.230295	-9.820223	-0.003417	0.003444	-0.000110
01405	14009067	-0.147058	0.220389	-9.807793	-0.004128	0.000232	-0.000224
01406	14009117	-0.124509	0.233881	-9.817493	-0.003299	0.002575	-0.000309
01407	14009167	-0.140605	0.229472	-9.831553	-0.007214	0.000855	-0.000565
01408	14009217	-0.123641	0.215135	-9.815820	-0.004435	0.000070	0.000961
01409	14009267	-0.115077	0.212454	-9.838394	-0.003519	0.001474	0.000743
01410	14009317	-0.144703	0.232821	-9.807089	0.001004	-0.002295	-0.001691
01411	14009367	-0.146594	0.232105	-9.823130	-0.006759	0.002541	-0.002992
01412	14009417	-0.142152	0.227462	-9.811887	-0.005365	0.000885	-0.002845
01413	14009467	-0.141477	0.235202	-9.821488	-0.007473	-0.000019	0.000425
01414	14009517	-0.139038	0.227956	-9.815266	-0.003986	-0.000188	-0.003047
01415	14009567	-0.129167	0.182781	-9.804516	-0.004341	0.003237	-0.000016
01416	14009617	-0.137871	0.220892	-9.801611	-0.003217	-0.002334	-0.002231
01417	14009667	-0.130832	0.213156	-9.801885	-0.004421	-0.000579	-0.001543
01418	14009717	-0.132946	0.209478	-9.806901	-0.005816	-0.001055	-0.001890
01419	14009767	-0.140347	0.230270	-9.826041	-0.005731	0.003596	-0.001610
01420	14009817	-0.135194	0.223559	-9.824145	-0.001111	0.005097	-0.002036
01421	14009867	-0.140947	0.214951	-9.821716	-0.003170	0.000706	0.001062
01422	14009917	-0.136077	0.230217	-9.816952	-0.006890	0.002876	0.005480
01423	14009967	-0.144172	0.226776	-9.817638	-0.005494	0.002626	-0.001483
01424	14010017	-0.131378	0.232661	-9.823688	-0.003108	0.001828	-0.002100
01425	14010067	-0.130600	0.224919	-9.825611	-0.004220	-0.001385	-0.000835
01426	14010117	-0.137615	0.236502	-9.827976	-0.006585	0.000178	-0.006139
01427	14010167	-0.142427	0.225738	-9.801826	-0.003564	-0.000954	-0.001154
01428	14010217	-0.148949	0.237744	-9.804190	0.000009	0.000666	0.000320
01429	14010267	-0.146589	0.227589	-9.808038	-0.007365	0.002912	-0.003944
01430	14010317	-0.151067	0.224398	-9.827429	-0.002812	0.000902	0.001097
01431	14010367	-0.132412	0.220839	-9.822251	-0.006268	0.002445	-0.004942
01432	14010417	-0.148851	0.233260	-9.823604	-0.006524	-0.001360	-0.000663
01433	14010467	-0.137855	0.230036	-9.810477	-0.004907	0.001152	-0.000532
01434	14010517	-0.128465	0.215599	-9.808606	-0.002691	0.000966	-0.000441
01435	14010567	-0.140915	0.230407	-9.821494	-0.004585	-0.001037	-0.001089
01436	14010617	-0.140267	0.232450	-9.802076	-0.003014	0.002993	-0.002929
01437	14010667	-0.119701	0.211178	-9.820632	-0.004175	0.002298	-0.001360
01438	14010717	-0.134201	0.202503	-9.811446	-0.011338	0.001100	-0.002342
01439	14010767	-0.129231	0.220978	-9.818192	-0.002945	-0.001465	-0.002956
01440	14010817	-0.154529	0.230899	-9.811589	-0.007830	0.001490	-0.000619
01441	14010867	-0.129350	0.217383	-9.814599	-0.004424	-0.000837	0.000351
01442	14010917	-0.137138	0.215956	-9.803764	-0.004449	0.005034	-0.002467
01443	14010967	-0.136863	0.226673	-9.811921	-0.002875	0.000311	-0.004641
01444	14011017	-0.121374	0.227953	-9.818945	-0.002402	0.000810	-0.001439
01445	14011067	-0.117584	0.218518	-9.800274	-0.004907	-0.001784	-0.000580
01446	14011117	-0.133254	0.203737	-9.818883	-0.006007	-0.000580	-0.002651
01447	14011167	-0.158114	0.243050	-9.825957	-0.005248	0.001722	-0.004500
01448	14011217	-0.134512	0.218612	-9.800180	-0.006528	-0.000129	0.000014
01449	14011267	-0.150323	0.225619	-9.828630	-0.003314	0.001476	-0.000212
01450	14011317	-0.148261	0.235115	-9.823606	-0.004057	0.002753	-0.000460
01451	14011367	-0.146791	0.221066	-9.812349	-0.000958	0.000706	-0.001565
01452	14011417	-0.146863	0.214888	-9.810184	-0.001936	0.004597	-0.000517
01453	14011467	-0.145671	0.230689	-9.816430	-0.003680	0.001918	-0.001074
01454	14011517	-0.146575	0.226837	-9.820729	-0.006082	0.001878	-0.000553
01455	14011567	-0.158497	0.234722	-9.825476	-0.003817	0.003306	-0.000070
01456	14011617	-0.160788	0.249612	-9.836968	-0.004096	0.001944	-0.001554
01457	14011667	-0.148351	0.227127	-9.805395	-0.002430	0.001976	0.001040
01458	14011717	-0.153630	0.232359	-9.805117	-0.002170	0.001293	-0.005313
01459	14011767	-0.122907	0.220317	-9.815823	-0.002629	0.001834	-0.003932
01460	14011817	-0.149364	0.238417	-9.824802	-0.005624	-0.000210	0.001743
01461	14011867	-0.147068	0.232285	-9.821932	-0.008576	0.003498	-0.007364
01462	14011917	-0.132664	0.237196	-9.821774	-0.006875	-0.000398	-0.000437
01463	14011967	-0.139407	0.222538	-9.824135	-0.000779	0.000126	-0.000931
01464	14012017	-0.135909	0.228051	-9.804969	-0.003999	0.006110	-0.001311
01465	14012067	-0.138643	0.238129	-9.826532	-0.005264	-0.000660	-0.001051
01466	14012117	-0.139397	0.232590	-9.793451	-0.006372	0.001965	-0.002895
01467	14012167	-0.134290	0.230252	-9.822486	-0.004779	-0.000747	-0.000121
01468	14012217	-0.148294	0.233770	-9.828884	-0.006845	-0.000042	0.001105
01469	14012267	-0.128401	0.220868	-9.826106	-0.002572	-0.000740	-0.000387
01470	14012317	-0.150741	0.230073	-9.805136	-0.005586	0.003333	-0.003274
01471	14012367	-0.145935	0.217831	-9.813787	-0.003768	0.002626	-0.001746
01472	14012417	-0.125010	0.221036	-9.819166	-0.004150	0.001687	0.000431
01473	14012467	-0.152614	0.235213	-9.809444	-0.003182	0.003085	-0.003886
01474	14012517	-0.154782	0.243968	-9.834843	-0.004309	0.002454	-0.001900
01475	14012567	-0.154601	0.223706	-9.816146	-0.002544	0.003294	-0.002608
01476	14012617	-0.115515	0.210003	-9.806513	-0.001706	-0.001153	-0.003400
01477	14012667	-0.130564	0.224035	-9.821537	-0.000855	0.001414	-0.002210
01478	14012717	-0.140249	0.215302	-9.810702	-0.004324	0.002772	-0.004081
01479	14012767	-0.138329	0.219309	-9.820294	-0.004488	0.003131	-0.000169
01480	14012817	-0.139666	0.220013	-9.808549	-0.003921	0.000364	-0.000859
01481	14012867	-0.125848	0.210784	-9.829706	-0.004497	0.000189	-0.002558
01482	14012917	-0.150067	0.229105	-9.826714	-0.004550	0.003091	-0.001548
01483	14012967	-0.139265	0.235474	-9.817666	-0.001431	0.002635	-0.000915
01484	14013017	-0.128799	0.208827	-9.812197	-0.004376	0.000583	-0.000311
01485	14013067	-0.137133	0.231705	-9.820067	-0.007451	-0.000575	-0.003418
01486	14013117	-0.152614	0.247049	-9.806334	-0.002838	0.002412	-0.003445
01487	14013167	-0.149222	0.240771	-9.813537	-0.001240	0.000510	-0.001509
01488	14013217	-0.145284	0.236117	-9.824820	-0.004434	0.000223	-0.002108
01489	14013267	-0.138292	0.235663	-9.820786	-0.004928	0.001898	-0.000240
01490	14013317	-0.147144	0.230347	-9.812349	-0.001198	0.001313	-0.001180
01491	14013367	-0.137300	0.226018	-9.812159	-0.005063	0.000757	-0.004154
01492	14013417	-0.134797	0.225386	-9.804503	-0.002216	0.000676	-0.004770
01493	14013467	-0.132494	0.217679	-9.808586	-0.002950	-0.000006	-0.001152
01494	14013517	-0.136586	0.237762	-9.831816	-0.006897	0.002410	-0.000489
01495	14013567	-0.127675	0.238094	-9.822993	-0.002492	0.000710	-0.001439
01496	14013617	-0.129276	0.214968	-9.824181	-0.003411	0.000241	-0.002013
01497	14013667	-0.154387	0.232577	-9.799608	-0.007398	0.001012	-0.002065
01498	14013717	-0.150879	0.231510	-9.820236	-0.006522	0.001704	-0.003022
01499	14013767	-0.137440	0.233271	-9.823426	-0.001789	-0.003341	0.000593
01500	14013817	-0.133752	0.225074	-9.809536	-0.003742	0.001655	-0.001976
01501	14013867	-0.123851	0.218723	-9.817017	-0.003989	0.001360	-0.003610
01502	14013917	-0.136681	0.236847	-9.806645	-0.004518	0.003128	-0.000716
01503	14013967	-0.130672	0.217885	-9.823213	-0.000878	0.003296	-0.000817
01504	14014017	-0.124592	0.214442	-9.813181	-0.000026	-0.000308	-0.000262
01505	14014067	-0.149488	0.213430	-9.817117	-0.005404	0.002824	0.000187
01506	14014117	-0.133815	0.214179	-9.812411	-0.003453	0.001765	-0.000598
01507	14014167	-0.142826	0.238110	-9.831069	-0.003302	0.003017	-0.001932
01508	14014217	-0.145658	0.226812	-9.812595	-0.003546	0.001858	-0.000019
01509	14014267	-0.151415	0.245287	-9.805855	-0.005699	0.002044	-0.000680
01510	14014317	-0.136096	0.222637	-9.805692	-0.003675	0.001559	-0.003608
01511	14014367	-0.137831	0.231018	-9.815516	-0.003500	0.001081	-0.002616
01512	14014417	-0.140909	0.235548	-9.796803	0.001614	-0.000501	0.001435
01513	14014467	-0.134293	0.221056	-9.823673	-0.003868	0.000592	-0.001436
01514	14014517	-0.137714	0.213793	-9.806639	-0.005423	0.000205	-0.002550
01515	14014567	-0.137992	0.232200	-9.798258	-0.003295	-0.001401	-0.001511
01516	14014617	-0.157380	0.222781	-9.804144	-0.004398	-0.000878	-0.003874
01517	14014667	-0.146730	0.220362	-9.809225	-0.003897	0.002523	-0.003636
01518	14014717	-0.136434	0.210926	-9.814556	-0.004660	-0.001651	-0.000421
01519	14014767	-0.143442	0.226995	-9.817157	-0.005085	0.003929	-0.001157
01520	14014817	-0.126617	0.218741	-9.824435	-0.003877	0.003373	0.002075
01521	14014867	-0.138906	0.249211	-9.835402	-0.006571	0.000060	-0.001588
01522	14014917	-0.136200	0.223746	-9.808810	-0.000523	-0.001931	-0.000978
01523	14014967	-0.130300	0.223603	-9.822982	-0.001191	0.000960	-0.000672
01524	14015017	-0.132164	0.226135	-9.832320	-0.003818	0.003105	-0.003440
01525	14015067	-0.132473	0.229890	-9.826560	-0.003953	0.004495	-0.001830
01526	14015117	-0.137644	0.231332	-9.804725	-0.003047	0.002994	-0.002322
01527	14015167	-0.147836	0.242801	-9.800606	-0.003794	0.003200	-0.005197
01528	14015217	-0.137287	0.222580	-9.816707	-0.005972	-0.000243	0.002862
01529	14015267	-0.127429	0.226778	-9.819635	-0.006861	0.003149	-0.002631
01530	14015317	-0.132628	0.214979	-9.814096	-0.004709	0.002864	-0.003629
01531	14015367	-0.128555	0.219522	-9.819391	-0.003444	0.002600	-0.000750
01532	14015417	-0.130575	0.222868	-9.828242	-0.007346	-0.000699	-0.001558
01533	14015467	-0.130087	0.216321	-9.824656	-0.001390	0.004279	-0.002350
01534	14015517	-0.155805	0.216175	-9.804147	-0.002528	0.002644	-0.004467
01535	14015567	-0.130429	0.210067	-9.817463	-0.003945	0.001103	-0.002010
01536	14015617	-0.156941	0.258202	-9.809909	-0.001365	0.004636	-0.002921
01537	14015667	-0.149935	0.231326	-9.814253	-0.004870	0.003023	-0.002222
01538	14015717	-0.131985	0.228187	-9.821530	-0.006365	0.003904	-0.001153
01539	14015767	-0.140716	0.230401	-9.815737	-0.007095	-0.000303	0.001296
01540	14015817	-0.119650	0.216966	-9.839807	-0.003150	0.002281	-0.000850
01541	14015867	-0.127578	0.226413	-9.811967	-0.004333	0.001095	-0.003062
01542	14015917	-0.136454	0.241210	-9.821508	-0.007048	0.003180	-0.002531
01543	14015967	-0.130258	0.239376	-9.819621	-0.007657	0.001399	0.001785
01544	14016017	-0.142080	0.232510	-9.816922	-0.008712	0.003351	0.000743
01545	14016067	-0.148179	0.237033	-9.821208	-0.008038	0.000903	-0.002380
01546	14016117	-0.149770	0.222243	-9.826232	-0.003298	0.003056	-0.000075
01547	14016167	-0.152273	0.204962	-9.812561	-0.005314	0.003955	-0.001249
01548	14016217	-0.145985	0.222899	-9.817143	-0.003326	0.003662	-0.004143
01549	14016267	-0.143451	0.213399	-9.798223	-0.005168	0.001377	0.000336
01550	14016317	-0.161486	0.224928	-9.826894	-0.001573	0.003019	-0.002481
01551	14016367	-0.131524	0.223319	-9.811461	-0.008140	0.003489	0.001156
01552	14016417	-0.144655	0.209325	-9.826253	-0.004795	0.002509	-0.002126
01553	14016467	-0.129164	0.227465	-9.823225	-0.003996	0.001753	0.000525
01554	14016517	-0.151510	0.217501	-9.820235	-0.005645	0.000040	-0.002454
01555	14016567	-0.138808	0.206843	-9.820058	-0.001165	0.004417	-0.000396
01556	14016617	-0.153544	0.241986	-9.828372	-0.004964	0.005056	-0.003359
01557	14016667	-0.130937	0.219579	-9.821772	-0.003204	0.003190	0.000630
01558	14016717	-0.143154	0.226242	-9.791511	-0.006431	0.003062	-0.001799
01559	14016767	-0.144554	0.226103	-9.820749	-0.005286	0.005279	-0.000603
01560	14016817	-0.155626	0.231265	-9.825244	-0.005586	0.001530	-0.000719
01561	14016867	-0.145068	0.219214	-9.819068	-0.005943	0.001457	-0.001965
01562	14016917	-0.127197	0.218934	-9.827067	-0.003251	-0.001629	-0.000745
01563	14016967	-0.133882	0.232554	-9.815290	-0.004815	-0.001811	-0.001092
01564	14017017	-0.134834	0.221593	-9.826783	-0.005598	0.000852	0.000045
01565	14017067	-0.138395	0.221607	-9.820294	-0.004808	0.002056	-0.001585
01566	14017117	-0.148176	0.229834	-9.795565	-0.000415	0.000683	-0.002948
01567	14017167	-0.142723	0.215519	-9.810452	-0.004176	-0.000674	-0.000542
01568	14017217	-0.140695	0.234048	-9.823886	-0.006384	0.000127	-0.000981
01569	14017267	-0.142116	0.248974	-9.817658	-0.001752	-0.001273	0.000570
01570	14017317	-0.119124	0.214734	-9.804577	-0.003665	0.001469	0.000745
01571	14017367	-0.130078	0.230972	-9.816751	-0.003915	-0.002227	-0.004204
01572	14017417	-0.148746	0.227293	-9.814013	-0.003232	0.000697	-0.002462
01573	14017467	-0.154246	0.247932	-9.826216	-0.005344	-0.000820	0.002637
01574	14017517	-0.140649	0.224426	-9.812857	-0.005835	0.000335	0.000976
01575	14017567	-0.151946	0.231734	-9.813528	-0.001293	-0.000515	0.003009
01576	14017617	-0.153271	0.230930	-9.827900	0.000524	0.000581	0.001408
01577	14017667	-0.141292	0.226213	-9.818851	0.000085	0.002244	-0.000890
01578	14017717	-0.129400	0.210660	-9.820101	-0.006466	0.004067	0.000002
01579	14017767	-0.143554	0.242021	-9.805897	-0.005646	0.000435	0.001583
01580	14017817	-0.141608	0.226034	-9.792962	-0.007742	-0.004286	0.000794
01581	14017867	-0.138805	0.215801	-9.811188	-0.004649	0.002188	-0.002065
01582	14017917	-0.143865	0.222416	-9.818121	-0.002325	0.001424	-0.001275
01583	14017967	-0.140749	0.235115	-9.821970	-0.002797	0.000226	0.000291
01584	14018017	-0.136892	0.216700	-9.810240	-0.001844	0.003598	-0.000720
01585	14018067	-0.138580	0.219650	-9.818140	-0.001529	0.004370	-0.004880
01586	14018117	-0.137416	0.222801	-9.819825	-0.003172	0.003126	-0.000811
01587	14018167	-0.117970	0.220364	-9.816090	-0.002837	0.000348	-0.001506
01588	14018217	-0.122586	0.232652	-9.816788	-0.003988	0.002591	-0.000878
01589	14018267	-0.142062	0.221532	-9.808293	0.000530	0.002386	0.000387
01590	14018317	-0.122115	0.214491	-9.820859	-0.004215	0.001325	-0.002486
01591	14018367	-0.142717	0.215197	-9.810691	-0.002062	-0.000894	-0.001509
01592	14018417	-0.126190	0.213106	-9.811980	-0.004619	0.001763	-0.005817
01593	14018467	-0.137913	0.215817	-9.801366	-0.001334	0.003873	0.001176
01594	14018517	-0.127254	0.211169	-9.825144	-0.004049	0.003330	-0.001868
01595	14018567	-0.145572	0.219499	-9.823140	-0.006500	-0.002071	-0.000510
01596	14018617	-0.130531	0.238909	-9.810755	-0.005403	0.001759	-0.001714
01597	14018667	-0.156583	0.233412	-9.799602	-0.005098	-0.000011	-0.000760
01598	14018717	-0.148997	0.237040	-9.822406	-0.007521	0.004047	-0.001758
01599	14018767	-0.146903	0.233306	-9.813545	-0.005229	0.003244	-0.002921
01600	14018817	-0.150117	0.231644	-9.818565	-0.003883	0.003535	0.001694
01601	14018867	-0.117427	0.219446	-9.815848	-0.004246	0.002619	-0.000752
01602	14018917	-0.148833	0.220690	-9.814975	-0.003783	0.003013	-0.002959
01603	14018967	-0.146072	0.223433	-9.817384	-0.005158	0.000922	-0.000756
01604	14019017	-0.146423	0.229839	-9.807553	-0.002358	0.002687	0.000208
01605	14019067	-0.132072	0.232576	-9.798284	-0.005408	0.000081	0.001133
01606	14019117	-0.159912	0.253420	-9.798870	0.000019	0.000369	0.000219
01607	14019167	-0.140822	0.226342	-9.817171	-0.005695	0.003815	-0.002884
01608	14019217	-0.132420	0.236356	-9.817703	-0.002988	0.003054	-0.002606
01609	14019267	-0.136517	0.241851	-9.818153	-0.005233	0.001274	-0.002581
01610	14019317	-0.129328	0.223007	-9.797103	-0.001865	-0.000888	-0.000326
01611	14019367	-0.139072	0.232967	-9.830365	-0.005993	0.006562	0.001519
01612	14019417	-0.144971	0.236837	-9.824341	-0.005498	0.001492	-0.004213
01613	14019467	-0.130716	0.226098	-9.810271	-0.004869	0.001188	0.000622
01614	14019517	-0.152520	0.218864	-9.809206	-0.002176	0.000583	-0.003263
01615	14019567	-0.139207	0.219050	-9.804718	-0.005466	-0.000339	-0.000250
01616	14019617	-0.135210	0.222357	-9.808333	-0.002091	-0.000533	0.002981
01617	14019667	-0.139933	0.214844	-9.824363	-0.005431	0.003763	-0.000515
01618	14019717	-0.136188	0.219442	-9.818871	-0.002024	0.003404	0.001810
01619	14019767	-0.131051	0.218765	-9.813387	-0.002709	0.001451	-0.001659
01620	14019817	-0.141086	0.224670	-9.826279	0.000831	-0.000431	-0.002189
01621	14019867	-0.144086	0.220926	-9.833458	-0.001689	-0.001870	-0.001580
01622	14019917	-0.141355	0.229382	-9.817652	-0.004686	0.002609	-0.004720
01623	14019967	-0.163845	0.218054	-9.823766	-0.004946	0.001799	-0.002928
01624	14020017	-0.129846	0.205759	-9.816505	-0.003310	0.002731	-0.003123
01625	14020067	-0.141043	0.214750	-9.806141	-0.004500	0.000776	-0.003385
01626	14020117	-0.127176	0.204403	-9.816036	-0.005130	0.003803	-0.000837
01627	14020167	-0.151033	0.230738	-9.820478	-0.004264	0.003757	0.000541
01628	14020217	-0.113755	0.192952	-9.820654	-0.000653	-0.000379	-0.000971
01629	14020267	-0.126111	0.208804	-9.821553	-0.005841	0.000718	-0.002746
01630	14020317	-0.158934	0.240227	-9.816607	-0.000324	-0.001436	0.001178
01631	14020367	-0.129056	0.210983	-9.818909	-0.003544	-0.000078	-0.002047
01632	14020417	-0.137616	0.226909	-9.807598	-0.003731	0.000054	0.001574
01633	14020467	-0.130588	0.214292	-9.810992	-0.005444	-0.001756	-0.001796
01634	14020517	-0.148923	0.222113	-9.817131	-0.001657	-0.001947	-0.000522
01635	14020567	-0.144308	0.215947	-9.813794	-0.002287	0.001947	-0.000466
01636	14020617	-0.134693	0.213980	-9.830139	-0.003225	0.000157	0.000001
01637	14020667	-0.137938	0.227778	-9.823177	-0.001905	0.002823	-0.002292
01638	14020717	-0.115236	0.216332	-9.815146	-0.004765	0.001556	0.002161
01639	14020767	-0.139010	0.230736	-9.810712	-0.004426	0.002617	-0.002866
01640	14020817	-0.130174	0.230074	-9.816750	-0.006705	0.001965	-0.001322
01641	14020867	-0.130168	0.231212	-9.824655	-0.001349	0.001676	0.001159
01642	14020917	-0.132094	0.218234	-9.828477	-0.002456	0.001973	-0.000692
