PacketCounter	SampleTimeFine	Acc_X	Acc_Y	Acc_Z	Gyr_X	Gyr_Y	Gyr_Z
00001	14100417	0.047268	0.062813	9.773066	-0.006285	0.001442	0.000022
00002	14100467	0.063051	0.038132	9.786897	-0.005385	-0.000001	-0.002072
00003	14100517	0.052083	0.056913	9.789104	-0.005836	-0.001682	0.000484
00004	14100567	0.045086	0.043436	9.820775	-0.002136	0.001968	0.000878
00005	14100617	0.045283	0.065076	9.823884	-0.006449	-0.000564	-0.000791
00006	14100667	0.052643	0.060762	9.834874	-0.005567	0.000635	-0.004889
00007	14100717	0.064967	0.050315	9.833861	-0.004043	-0.001549	0.002241
00008	14100767	0.039191	0.034316	9.823689	-0.002231	0.001503	-0.004191
00009	14100817	0.043280	0.035033	9.816721	-0.001077	0.001468	-0.001817
00010	14100867	0.060044	0.032895	9.804641	-0.003918	0.002681	0.001401
00011	14100917	0.059864	0.028508	9.797214	-0.003146	0.003402	0.001305
00012	14100967	0.032405	0.042906	9.792082	-0.004513	0.002087	0.000758
00013	14101017	0.033835	0.043518	9.797592	-0.007363	-0.001065	-0.001238
00014	14101067	0.050812	0.013419	9.799186	-0.003462	-0.000093	-0.001915
00015	14101117	0.032822	0.026057	9.798556	-0.002971	0.000860	0.000905
00016	14101167	0.051676	0.030826	9.810196	-0.002627	0.003955	-0.002697
00017	14101217	0.038860	0.044336	9.831355	-0.003979	-0.000679	-0.000283
00018	14101267	0.058373	0.022223	9.837741	-0.001129	-0.000926	-0.002024
00019	14101317	0.068789	0.016857	9.820422	-0.005218	0.000676	-0.003641
00020	14101367	0.064955	0.042667	9.802939	-0.005591	0.001546	-0.002158
00021	14101417	0.051463	0.043798	9.795581	-0.005118	-0.000286	-0.002651
00022	14101467	0.029017	0.031099	9.801689	-0.005596	-0.002196	0.000387
00023	14101517	0.038225	0.039442	9.782948	-0.010012	-0.000245	-0.001355
00024	14101567	0.070264	0.013058	9.779676	-0.002543	-0.001018	-0.004299
00025	14101617	0.078030	0.022100	9.780592	-0.005755	-0.000560	-0.002559
00026	14101667	0.050270	0.033377	9.810452	-0.003093	0.001462	-0.003158
00027	14101717	0.069013	0.027559	9.810596	-0.001622	-0.001278	0.001372
00028	14101767	0.060871	0.068109	9.829797	-0.003219	0.001719	-0.000244
00029	14101817	0.073253	0.048461	9.828062	-0.000023	0.003507	-0.004701
00030	14101867	0.063892	0.054839	9.831704	-0.003967	0.001896	-0.002324
00031	14101917	0.072090	0.053623	9.826872	-0.002245	0.000028	-0.000156
00032	14101967	0.046627	0.043000	9.764442	-0.007984	0.001376	-0.001543
00033	14102017	0.050241	0.042230	9.804935	-0.005776	-0.000651	-0.000439
00034	14102067	0.033708	0.059143	9.776735	-0.000560	0.002513	0.000430
00035	14102117	0.036261	0.059879	9.789179	-0.004263	0.002185	-0.001705
00036	14102167	0.032250	0.043307	9.813412	-0.005415	0.001392	-0.000013
00037	14102217	0.058573	0.056555	9.819270	-0.003888	0.000872	0.003250
00038	14102267	0.040358	0.045105	9.813131	-0.004280	-0.000436	-0.003458
00039	14102317	0.054430	0.047113	9.834864	-0.003243	0.003295	-0.003024
00040	14102367	0.042889	0.052163	9.814079	-0.004992	0.001879	-0.001934
00041	14102417	0.049061	0.044629	9.832026	-0.007188	0.000614	-0.002740
00042	14102467	0.043289	0.041613	9.808328	-0.005498	-0.000454	-0.001238
00043	14102517	0.050060	0.053211	9.801103	-0.002572	0.000346	0.000485
00044	14102567	0.040889	0.057597	9.790841	-0.002289	-0.001857	-0.003145
00045	14102617	0.059016	0.037568	9.774937	-0.004581	0.000117	0.001129
00046	14102667	0.066726	0.043015	9.796221	-0.005684	-0.001520	-0.000475
00047	14102717	0.050028	0.032515	9.807814	-0.001961	0.002391	0.000335
00048	14102767	0.043386	0.031892	9.804482	-0.006477	0.002337	-0.002668
00049	14102817	0.058549	0.027750	9.839411	-0.007230	-0.001225	-0.000536
00050	14102867	0.066693	0.005005	9.822350	-0.003684	0.002233	0.000821
00051	14102917	0.060142	0.022042	9.825981	-0.006843	-0.000449	-0.002614
00052	14102967	0.045761	0.037548	9.829642	-0.004928	0.002308	0.002013
00053	14103017	0.038942	0.037233	9.814095	-0.004867	0.003877	-0.004297
00054	14103067	0.055072	0.030291	9.797724	-0.005888	0.003961	-0.002595
00055	14103117	0.058960	0.033737	9.789560	-0.006559	0.000786	-0.002418
00056	14103167	0.072486	0.025343	9.775820	-0.007765	0.002508	-0.001572
00057	14103217	0.061361	0.022899	9.775884	-0.004940	0.001070	-0.003352
00058	14103267	0.059877	0.037314	9.780436	-0.003719	0.003195	-0.001002
00059	14103317	0.060136	0.032909	9.819742	-0.004657	0.004566	-0.000959
00060	14103367	0.060731	0.031303	9.813033	-0.006096	0.002474	-0.001193
00061	14103417	0.056478	0.032396	9.820485	-0.003571	-0.000616	-0.003010
00062	14103467	0.068161	0.041309	9.836727	-0.003500	-0.000806	-0.001766
00063	14103517	0.058486	0.048104	9.832446	-0.004323	0.002120	-0.000845
00064	14103567	0.056716	0.038460	9.798908	-0.001592	0.000556	-0.001182
00065	14103617	0.064571	0.044279	9.824033	-0.004671	0.001916	-0.001166
00066	14103667	0.062173	0.040431	9.794081	-0.002743	0.001929	0.002130
00067	14103717	0.038931	0.062116	9.769274	-0.004309	0.001831	-0.000043
00068	14103767	0.043061	0.057639	9.773328	-0.003728	0.000287	-0.001752
00069	14103817	0.045317	0.075246	9.789852	-0.002011	0.003202	0.002554
00070	14103867	0.041451	0.053172	9.798025	-0.004968	0.004566	0.000679
00071	14103917	0.056195	0.058966	9.831017	-0.004765	0.003950	-0.002275
00072	14103967	0.065556	0.030694	9.831934	-0.002228	0.005873	0.000609
00073	14104017	0.064132	0.054947	9.849683	-0.008590	-0.002769	-0.002271
00074	14104067	0.054790	0.039277	9.837505	-0.001051	-0.000045	0.002085
00075	14104117	0.060412	0.037205	9.812548	-0.006594	0.002816	-0.003463
00076	14104167	0.051020	0.023700	9.785043	-0.008874	0.000328	-0.000297
00077	14104217	0.033868	0.042774	9.789200	-0.005509	0.000038	0.001422
00078	14104267	0.064745	0.050473	9.789760	-0.005677	0.000650	0.003059
00079	14104317	0.050299	0.049632	9.784082	-0.007664	-0.000488	0.000466
00080	14104367	0.062679	0.042531	9.792890	-0.005575	-0.000103	-0.002653
00081	14104417	0.052740	0.033134	9.794374	-0.006091	0.002509	0.000637
00082	14104467	0.036862	0.059283	9.823931	-0.007357	-0.001389	-0.001718
00083	14104517	0.063594	0.034391	9.835548	-0.002215	-0.004208	-0.002936
00084	14104567	0.052387	0.043967	9.835598	-0.002557	0.000563	-0.003843
00085	14104617	0.036139	0.053004	9.821053	-0.003758	0.001420	-0.001234
00086	14104667	0.053154	0.031795	9.807793	-0.003822	0.001288	-0.001330
00087	14104717	0.059975	0.041842	9.793856	-0.004066	0.002997	-0.001097
00088	14104767	0.065369	0.022368	9.777300	-0.003317	0.002459	-0.003025
00089	14104817	0.059515	0.018900	9.786441	-0.005444	0.004968	-0.002146
00090	14104867	0.053724	0.029789	9.792936	-0.000229	0.002226	-0.000408
00091	14104917	0.049302	0.023690	9.791039	-0.006542	0.002338	-0.001893
00092	14104967	0.059555	0.030494	9.823340	-0.005011	0.001458	-0.001520
00093	14105017	0.069673	0.016167	9.820417	-0.005018	0.001521	-0.003414
00094	14105067	0.071016	0.022165	9.830237	-0.003900	0.001736	-0.002614
00095	14105117	0.036687	0.026893	9.819622	-0.003828	0.002281	-0.004401
00096	14105167	0.054079	0.024768	9.831519	-0.007752	0.000187	-0.000367
00097	14105217	0.058427	0.025745	9.813523	0.002425	0.001010	-0.001285
00098	14105267	0.038616	0.029056	9.818174	-0.006235	0.001694	-0.001385
00099	14105317	0.068443	0.022227	9.779930	-0.002932	0.000337	-0.001372
00100	14105367	0.029876	0.043875	9.769802	-0.007305	0.003260	-0.002205
00101	14105417	0.061713	0.036527	9.790731	-0.001339	0.004585	-0.003985
00102	14105467	0.036216	0.058201	9.788217	-0.004933	0.003142	-0.001990
00103	14105517	0.047155	0.046447	9.814771	-0.000922	0.004728	-0.002793
00104	14105567	0.035347	0.065584	9.822509	-0.001209	-0.001709	-0.005391
00105	14105617	0.055051	0.045816	9.826478	-0.002206	-0.000500	-0.005131
00106	14105667	0.030955	0.056184	9.823481	-0.004911	-0.002667	-0.000165
00107	14105717	0.052274	0.055270	9.824093	-0.003902	0.002701	-0.002766
00108	14105767	0.053721	0.051543	9.821688	-0.004876	0.003270	-0.001607
00109	14105817	0.052379	0.054651	9.818099	-0.003183	-0.000541	0.000324
00110	14105867	0.057468	0.052779	9.790034	-0.002585	0.003891	-0.001354
00111	14105917	0.027552	0.085638	9.785380	-0.006410	0.003306	-0.001024
00112	14105967	0.048047	0.067752	9.776179	-0.007814	-0.003078	-0.001404
00113	14106017	0.055314	0.067023	9.787647	-0.003354	-0.001058	0.001667
00114	14106067	0.054189	0.046748	9.805388	-0.005299	0.000618	-0.000661
00115	14106117	0.067686	0.030681	9.803174	-0.003171	0.002106	0.000431
00116	14106167	0.075774	0.049547	9.807432	-0.007350	0.002810	0.000157
00117	14106217	0.053039	0.044160	9.840867	-0.002004	0.000612	-0.000633
00118	14106267	0.067757	0.045353	9.837680	-0.002338	0.002991	-0.001393
00119	14106317	0.049526	0.050115	9.819315	-0.003949	0.001157	-0.001651
00120	14106367	0.043768	0.047490	9.821017	-0.009187	0.004459	0.001200
00121	14106417	0.044414	0.032315	9.793462	-0.006261	0.001699	-0.000104
00122	14106467	0.075338	0.010830	9.777019	-0.007293	-0.000621	-0.004284
00123	14106517	0.038140	0.041273	9.778871	-0.007077	0.003235	-0.000127
00124	14106567	0.069614	0.024090	9.783027	-0.002643	0.001107	-0.004605
00125	14106617	0.061480	0.026988	9.790021	-0.002660	-0.000343	-0.004552
00126	14106667	0.056437	0.032099	9.820722	-0.006411	-0.000887	-0.002366
00127	14106717	0.066135	0.016189	9.819475	-0.002889	0.001274	0.000235
00128	14106767	0.064352	0.022484	9.821404	-0.003318	0.001354	-0.004444
00129	14106817	0.045269	0.027211	9.823179	-0.004247	0.000639	-0.000596
00130	14106867	0.058107	0.036106	9.812325	-0.003462	-0.000096	-0.002942
00131	14106917	0.047383	0.026086	9.807584	-0.003530	-0.001769	0.000574
00132	14106967	0.057631	0.034275	9.805132	-0.003353	0.001749	-0.000082
00133	14107017	0.047164	0.026460	9.782672	-0.002482	0.000279	-0.002016
00134	14107067	0.058014	0.028137	9.781177	-0.008223	-0.002376	-0.001564
00135	14107117	0.037803	0.045735	9.801881	-0.003834	-0.000525	-0.003904
00136	14107167	0.039206	0.037013	9.790134	-0.000029	-0.001356	-0.001741
00137	14107217	0.054903	0.034686	9.806111	-0.003824	-0.002579	0.000826
00138	14107267	0.035704	0.073109	9.822733	-0.005319	-0.000770	0.000204
00139	14107317	0.044995	0.045489	9.837083	-0.004022	-0.001492	-0.002245
00140	14107367	0.061975	0.052788	9.824519	-0.003899	0.003570	-0.005198
00141	14107417	0.051144	0.044364	9.833924	-0.007626	0.002152	-0.003625
00142	14107467	0.052540	0.055885	9.814977	-0.003796	0.003609	-0.001992
00143	14107517	0.040406	0.053345	9.784369	-0.004847	0.002500	-0.000134
00144	14107567	0.058993	0.051978	9.790508	-0.008111	-0.001692	-0.000761
00145	14107617	0.043704	0.067448	9.795125	-0.006210	0.003117	-0.001538
00146	14107667	0.041931	0.059865	9.790351	-0.004845	0.001265	-0.002544
00147	14107717	0.040024	0.051244	9.798038	-0.004140	-0.003950	-0.002033
00148	14107767	0.042848	0.060235	9.799211	-0.005110	0.001524	-0.002702
00149	14107817	0.061210	0.044927	9.829799	-0.002407	0.002052	-0.002838
00150	14107867	0.061391	0.070690	9.832442	-0.003704	-0.002293	0.000282
00151	14107917	0.062114	0.059176	9.828593	-0.002348	0.004411	-0.001710
00152	14107967	0.047451	0.039733	9.825076	-0.005665	0.002933	-0.001478
00153	14108017	0.047400	0.051909	9.809744	-0.001441	0.001005	-0.000729
00154	14108067	0.043554	0.044785	9.790580	-0.004130	0.002692	-0.005842
00155	14108117	0.048657	0.035718	9.806620	-0.006945	0.000239	0.001013
00156	14108167	0.046833	0.054035	9.778583	-0.011714	0.000886	-0.003976
00157	14108217	0.053698	0.033671	9.794378	-0.003020	0.000075	-0.002240
00158	14108267	0.046464	0.027576	9.799931	-0.003035	-0.002377	-0.000425
00159	14108317	0.044381	0.038645	9.833724	-0.004893	-0.001217	-0.001375
00160	14108367	0.062801	0.036515	9.809419	-0.009368	0.002807	-0.001469
00161	14108417	0.055676	0.020014	9.839420	-0.003252	0.003487	-0.002831
00162	14108467	0.051444	0.033531	9.816195	-0.004596	0.000405	-0.001652
00163	14108517	0.058173	0.041031	9.811362	-0.005631	0.004099	0.000291
00164	14108567	0.043624	0.049726	9.821735	-0.004378	0.000926	0.000753
00165	14108617	0.050463	0.037682	9.809728	-0.005914	-0.000333	-0.000695
00166	14108667	0.043316	0.025435	9.797537	-0.004388	0.000086	-0.000116
00167	14108717	0.048443	0.030258	9.793675	-0.004797	0.003017	0.000570
00168	14108767	0.055436	0.056228	9.796283	-0.003267	-0.002997	0.000598
00169	14108817	0.043469	0.028539	9.797302	-0.004418	0.001988	-0.000687
00170	14108867	0.039242	0.038318	9.810263	0.000020	0.002263	-0.000307
00171	14108917	0.045155	0.011758	9.827731	-0.002548	0.002799	0.000628
00172	14108967	0.065593	0.038635	9.822352	-0.003955	0.000741	0.002027
00173	14109017	0.035443	0.048679	9.834244	-0.005247	0.001007	-0.000143
00174	14109067	0.038854	0.048920	9.822963	-0.005420	-0.000007	-0.004028
00175	14109117	0.047981	0.043921	9.825805	-0.001147	-0.002408	-0.000976
00176	14109167	0.053899	0.045796	9.807311	-0.002620	0.003398	-0.006802
00177	14109217	0.043392	0.064661	9.816696	-0.007554	0.002225	0.000446
00178	14109267	0.046224	0.057443	9.799905	-0.004733	0.002082	0.000440
00179	14109317	0.065949	0.046473	9.791671	-0.003719	0.002029	-0.001647
00180	14109367	0.045553	0.059483	9.791775	-0.004964	0.000140	-0.000055
00181	14109417	0.046797	0.069629	9.809266	-0.005179	-0.002483	-0.002404
00182	14109467	0.074171	0.049991	9.824454	-0.006951	0.004332	-0.002366
00183	14109517	0.046690	0.069616	9.828678	-0.005078	-0.002744	-0.004361
00184	14109567	0.046547	0.053323	9.837298	-0.005966	-0.001556	0.000839
00185	14109617	0.072507	0.037524	9.825665	-0.002889	0.002041	-0.002742
00186	14109667	0.062567	0.039865	9.811820	-0.004683	0.000978	-0.003735
00187	14109717	0.057869	0.050573	9.809681	-0.003631	0.002944	0.003450
00188	14109767	0.045913	0.035670	9.797287	-0.004041	-0.001942	-0.000130
00189	14109817	0.064526	0.051723	9.790958	-0.002792	0.007375	-0.001143
00190	14109867	0.057767	0.041051	9.803260	-0.003111	0.000945	-0.002257
00191	14109917	0.050614	0.036299	9.802623	-0.004318	0.000899	-0.001123
00192	14109967	0.054917	0.042077	9.802839	-0.001282	-0.001147	-0.000277
00193	14110017	0.054430	0.047701	9.804990	-0.003804	0.002909	-0.001404
00194	14110067	0.038269	0.053857	9.817286	-0.006457	0.004963	-0.000355
00195	14110117	0.037815	0.060530	9.821372	-0.002835	0.000536	-0.001639
00196	14110167	0.056717	0.034884	9.819121	-0.004991	0.000755	-0.003300
00197	14110217	0.067113	0.040449	9.813790	-0.008692	0.002530	-0.000911
00198	14110267	0.051946	0.056821	9.808836	-0.005103	0.002693	0.000554
00199	14110317	0.028992	0.056613	9.805602	-0.002364	-0.000261	-0.000587
00200	14110367	0.027031	0.049381	9.806565	-0.006411	0.001341	-0.002299
00201	14110417	0.051790	0.040496	9.794942	-0.001830	0.001271	-0.000361
00202	14110467	0.059881	0.037640	9.805925	-0.005876	-0.000648	-0.001545
00203	14110517	0.051276	0.051582	9.792309	-0.006123	-0.000551	-0.000262
00204	14110567	0.059878	0.029724	9.817436	-0.003973	0.000132	-0.001415
00205	14110617	0.048620	0.033818	9.820845	-0.005044	0.001791	0.000649
00206	14110667	0.053313	0.053862	9.830157	-0.005611	0.002162	-0.002585
00207	14110717	0.040231	0.047018	9.806508	-0.001612	0.001237	-0.000875
00208	14110767	0.038391	0.030294	9.828085	-0.002712	0.000803	-0.000296
00209	14110817	0.053851	0.041469	9.802126	-0.005469	0.002812	-0.001974
00210	14110867	0.048153	0.043179	9.799994	-0.003795	0.000621	0.000414
00211	14110917	0.051757	0.054295	9.786079	-0.004940	-0.001859	-0.001902
00212	14110967	0.069382	0.020639	9.801805	-0.002474	-0.000710	0.001074
00213	14111017	0.045119	0.059984	9.796886	-0.005095	0.002109	-0.001528
00214	14111067	0.045267	0.061674	9.796645	-0.004140	0.003156	-0.002968
00215	14111117	0.059447	0.051557	9.815751	-0.004565	-0.000527	-0.002316
00216	14111167	0.044750	0.051068	9.808887	-0.003273	-0.001890	-0.000916
00217	14111217	0.048977	0.050867	9.807895	-0.005022	-0.000151	-0.002506
00218	14111267	0.049376	0.064003	9.827538	-0.006305	0.001924	-0.002200
00219	14111317	0.060195	0.050896	9.806642	-0.001997	0.000231	-0.001132
00220	14111367	0.040520	0.040322	9.804101	-0.007450	0.001714	-0.001718
00221	14111417	0.048402	0.043505	9.804784	-0.006532	-0.000049	-0.001537
00222	14111467	0.040321	0.060219	9.796191	-0.004624	0.002274	-0.003584
00223	14111517	0.047893	0.044760	9.803351	-0.002554	-0.000294	-0.000812
00224	14111567	0.050478	0.037789	9.806689	-0.007787	0.004520	0.000060
00225	14111617	0.049534	0.064936	9.799256	-0.005508	0.002136	-0.001626
00226	14111667	0.073648	0.036897	9.824790	-0.007218	-0.000480	-0.001506
00227	14111717	0.037694	0.063751	9.809625	-0.002556	0.006228	0.000379
00228	14111767	0.045443	0.058940	9.817492	-0.005783	0.001447	-0.003999
00229	14111817	0.053338	0.054306	9.820579	-0.001927	0.001906	-0.003656
00230	14111867	0.065993	0.039853	9.813811	-0.004134	0.000164	0.001022
00231	14111917	0.048789	0.062708	9.806688	-0.005822	0.002938	-0.001489
00232	14111967	0.058597	0.025695	9.802333	-0.004921	0.001727	-0.001530
00233	14112017	0.057342	0.041503	9.793245	-0.002783	-0.001368	-0.002388
00234	14112067	0.058937	0.037405	9.797788	-0.002059	0.001129	-0.002889
00235	14112117	0.039936	0.056533	9.805069	-0.004491	-0.000588	0.000859
00236	14112167	0.051245	0.045068	9.802620	-0.003892	-0.000152	0.002526
00237	14112217	0.067610	0.042281	9.816435	-0.000197	-0.000326	-0.005149
00238	14112267	0.058704	0.040486	9.834206	-0.001874	0.000226	-0.003313
00239	14112317	0.047122	0.036004	9.821570	-0.001237	0.002565	-0.001089
00240	14112367	0.040172	0.029199	9.812737	-0.000507	0.000739	-0.001391
00241	14112417	0.036289	0.048744	9.811791	-0.003549	0.004174	0.000337
00242	14112467	0.045606	0.051964	9.811269	-0.003630	0.001428	-0.000225
00243	14112517	0.061395	0.047171	9.813109	-0.002819	0.000089	0.000984
00244	14112567	0.058815	0.027135	9.787001	-0.004454	0.004121	-0.003126
00245	14112617	0.053765	0.039006	9.801409	-0.001969	-0.000773	-0.003412
00246	14112667	0.036403	0.050278	9.806277	-0.004065	0.000771	-0.002946
00247	14112717	0.053486	0.045189	9.796615	-0.004020	-0.001718	-0.003414
00248	14112767	0.052978	0.033375	9.798532	-0.006770	0.001334	-0.003199
00249	14112817	0.057198	0.047474	9.816958	-0.005791	0.005133	-0.001319
00250	14112867	0.058546	0.035143	9.820065	-0.004617	0.003480	0.000463
00251	14112917	0.062280	0.034028	9.817421	-0.004315	-0.000365	-0.002991
00252	14112967	0.063189	0.034024	9.810947	-0.008266	0.003378	-0.001133
00253	14113017	0.064550	0.042092	9.802302	-0.005985	0.003164	0.000815
00254	14113067	0.032320	0.052127	9.806068	-0.003425	0.000910	-0.002950
00255	14113117	0.043454	0.060422	9.794266	-0.007270	0.000007	-0.001887
00256	14113167	0.059455	0.053307	9.823421	-0.005220	-0.002831	0.000592
00257	14113217	0.051673	0.049959	9.814837	-0.001383	-0.002921	0.000835
00258	14113267	0.046612	0.032035	9.812230	-0.004613	-0.000841	0.002395
00259	14113317	0.054023	0.046840	9.810028	-0.006222	-0.000456	0.000158
00260	14113367	0.066461	0.034735	9.821709	-0.004780	0.001242	-0.002819
00261	14113417	0.045268	0.044223	9.815825	-0.005174	-0.000738	-0.004460
00262	14113467	0.039653	0.074143	9.828559	-0.006167	-0.004264	0.001005
00263	14113517	0.051799	0.034063	9.820354	-0.007746	-0.003135	-0.000783
00264	14113567	0.065596	0.040126	9.794159	-0.005300	-0.000406	0.001755
00265	14113617	0.055952	0.029154	9.796121	-0.001814	0.002721	-0.001728
00266	14113667	0.061199	0.027391	9.800650	-0.004552	0.002088	-0.002529
00267	14113717	0.055020	0.038045	9.797320	-0.006673	-0.001692	-0.000871
00268	14113767	0.059480	0.021797	9.794203	-0.003172	-0.001921	0.000750
00269	14113817	0.033192	0.054275	9.810617	-0.001337	0.000726	-0.001261
00270	14113867	0.063086	0.044842	9.815496	-0.001121	-0.000110	-0.001012
00271	14113917	0.054640	0.039540	9.810025	-0.002879	0.000758	-0.001771
00272	14113967	0.045694	0.057206	9.814382	0.000285	0.002009	-0.002249
00273	14114017	0.052120	0.038693	9.813866	-0.005179	0.003051	0.001360
00274	14114067	0.058861	0.042902	9.809286	-0.003105	0.001823	-0.002336
00275	14114117	0.075350	0.029667	9.819755	-0.003108	0.000212	-0.000104
00276	14114167	0.064709	0.045094	9.812368	-0.002513	0.002478	-0.002563
00277	14114217	0.053968	0.052093	9.793483	-0.004455	0.002187	-0.000604
00278	14114267	0.047349	0.047855	9.809575	-0.008349	0.002627	-0.004688
00279	14114317	0.047901	0.039720	9.819646	-0.006228	0.000478	-0.002049
00280	14114367	0.076635	0.037708	9.792177	-0.004209	0.001448	-0.002307
00281	14114417	0.060092	0.046872	9.792028	-0.007092	-0.001211	0.001980
00282	14114467	0.053150	0.028092	9.806210	-0.006632	-0.004017	-0.001434
00283	14114517	0.048598	0.043376	9.818209	-0.004183	-0.001585	-0.001266
00284	14114567	0.046881	0.035594	9.831163	-0.002728	-0.000784	-0.001004
00285	14114617	0.061684	0.041193	9.812391	-0.003827	-0.000712	-0.002449
00286	14114667	0.050121	0.059690	9.807886	-0.003042	-0.000115	-0.002187
00287	14114717	0.046557	0.051702	9.816774	-0.001694	0.001814	-0.000769
00288	14114767	0.053477	0.051596	9.807868	-0.006109	0.002028	-0.000403
00289	14114817	0.055418	0.050664	9.805951	-0.007657	0.000092	-0.002850
00290	14114867	0.056943	0.049434	9.799475	-0.002351	-0.000713	-0.001907
00291	14114917	0.036624	0.066775	9.808911	-0.005956	0.000094	-0.001892
00292	14114967	0.072455	0.040135	9.808983	-0.007422	-0.000996	0.000031
00293	14115017	0.035363	0.068149	9.809883	-0.004806	0.002114	-0.003099
00294	14115067	0.050933	0.051250	9.810762	-0.007029	-0.001635	-0.001131
00295	14115117	0.052974	0.012404	9.814837	-0.002737	0.000573	-0.000072
00296	14115167	0.045631	0.049679	9.809590	-0.002784	0.002091	-0.000189
00297	14115217	0.042889	0.065398	9.800504	-0.002568	0.000991	-0.002986
00298	14115267	0.047705	0.045262	9.817246	-0.004475	0.003033	-0.000245
00299	14115317	0.041405	0.059427	9.823032	-0.007904	-0.000133	-0.001406
00300	14115367	0.043239	0.037128	9.804097	-0.004977	0.001399	-0.002655
00301	14115417	0.047840	0.037718	9.810059	-0.004341	0.002838	0.000171
00302	14115467	0.068256	0.051917	9.804199	-0.002786	0.001954	-0.002051
00303	14115517	0.053003	0.041491	9.805009	-0.001898	-0.001897	-0.000186
00304	14115567	0.029346	0.036158	9.809432	-0.003868	0.003907	-0.001713
00305	14115617	0.027975	0.038859	9.800572	-0.004710	-0.000179	-0.003082
00306	14115667	0.066548	0.011229	9.821481	-0.006001	0.000088	-0.004970
00307	14115717	0.064440	0.034131	9.814301	-0.003020	-0.001886	-0.001143
00308	14115767	0.053555	0.053172	9.803082	-0.002998	-0.001500	-0.001939
00309	14115817	0.059712	0.043422	9.808563	-0.004078	0.004583	-0.000715
00310	14115867	0.055111	0.027669	9.798524	-0.003012	-0.002015	0.000077
00311	14115917	0.056787	0.048121	9.811934	-0.002763	0.003449	0.000171
00312	14115967	0.058797	0.033552	9.799469	-0.003762	-0.000583	-0.002449
00313	14116017	0.040292	0.042797	9.801231	-0.003634	0.000653	-0.000320
00314	14116067	0.057296	0.040209	9.789881	0.000506	0.002049	-0.002026
00315	14116117	0.060207	0.040458	9.817418	-0.003706	0.002816	-0.001178
00316	14116167	0.046770	0.053157	9.809346	-0.005211	0.002085	0.001226
00317	14116217	0.049606	0.051604	9.820114	-0.004216	0.001805	-0.001534
00318	14116267	0.055348	0.057239	9.811698	-0.005741	0.000516	-0.000223
00319	14116317	0.047518	0.049476	9.809102	-0.003092	0.001698	-0.000098
00320	14116367	0.062040	0.048139	9.813582	-0.003251	0.002725	-0.000443
00321	14116417	0.061886	0.044786	9.803517	-0.001708	0.002500	0.000639
00322	14116467	0.061052	0.048320	9.786264	-0.003101	0.000562	-0.002570
00323	14116517	0.053450	0.039627	9.799488	-0.004636	0.000799	-0.001122
00324	14116567	0.074605	0.047891	9.796747	-0.001707	0.000269	-0.000302
00325	14116617	0.055067	0.047324	9.810269	-0.004605	-0.002501	-0.003672
00326	14116667	0.046160	0.066302	9.804547	-0.005332	0.000819	0.001027
00327	14116717	0.044239	0.059074	9.811749	-0.003602	0.003590	-0.001492
00328	14116767	0.040233	0.056182	9.827587	-0.002509	0.002480	-0.000796
00329	14116817	0.037991	0.069634	9.813462	-0.003061	0.001232	-0.005869
00330	14116867	0.046652	0.053754	9.792810	-0.000668	0.001866	-0.000230
00331	14116917	0.063435	0.038675	9.804707	-0.005393	0.000196	-0.004137
00332	14116967	0.047960	0.048233	9.824432	-0.004844	0.001670	0.001099
00333	14117017	0.062297	0.052362	9.814546	-0.003924	-0.002620	-0.002234
00334	14117067	0.066100	0.019503	9.808299	-0.005558	-0.001550	-0.002417
00335	14117117	0.044902	0.035834	9.808164	-0.007594	0.000130	-0.001918
00336	14117167	0.049059	0.026295	9.802625	-0.002718	0.001062	-0.000548
00337	14117217	0.043250	0.035370	9.811765	-0.003237	-0.000595	0.002236
00338	14117267	0.047025	0.021931	9.791615	-0.003579	0.000782	-0.001896
00339	14117317	0.044822	0.032713	9.817987	-0.002167	0.000709	-0.001322
00340	14117367	0.047668	0.024062	9.808386	-0.001707	0.000166	-0.002414
00341	14117417	0.040693	0.043935	9.809381	-0.002880	-0.000038	0.000729
00342	14117467	0.054999	0.021757	9.820091	-0.005951	-0.000101	0.000094
00343	14117517	0.062364	0.027287	9.796084	-0.003662	0.002395	-0.001086
00344	14117567	0.028535	0.037213	9.800336	-0.003505	-0.001833	-0.001937
00345	14117617	0.017742	0.050225	9.806855	-0.004870	0.001376	0.001353
00346	14117667	0.036039	0.048378	9.810357	-0.001375	0.004151	0.000492
00347	14117717	0.056634	0.014704	9.803793	-0.005264	-0.000767	-0.002123
00348	14117767	0.049881	0.034306	9.811491	-0.001734	0.001106	-0.001030
00349	14117817	0.050794	0.066705	9.811716	-0.003798	0.002947	-0.000311
00350	14117867	0.051772	0.032143	9.803091	-0.007662	0.002750	0.001590
00351	14117917	0.054125	0.049526	9.796846	-0.001691	-0.001282	0.000238
00352	14117967	0.051232	0.041809	9.806211	-0.006188	0.000285	-0.001667
00353	14118017	0.057681	0.038036	9.802340	-0.005136	0.003695	0.000304
00354	14118067	0.041756	0.051518	9.807453	-0.004572	0.002863	-0.001143
00355	14118117	0.064548	0.046915	9.799191	-0.005632	0.003041	-0.001013
00356	14118167	0.064902	0.045377	9.793205	-0.004245	-0.001455	-0.000497
00357	14118217	0.082702	0.047633	9.824972	-0.007491	0.003394	0.000373
00358	14118267	0.069419	0.044582	9.817620	-0.004020	0.003517	-0.001721
00359	14118317	0.063247	0.033826	9.821012	-0.001772	-0.003098	-0.003491
00360	14118367	0.076330	0.031164	9.811353	-0.006320	0.002410	-0.001078
00361	14118417	0.065196	0.055379	9.819555	-0.004636	0.003058	0.000425
00362	14118467	0.058720	0.050206	9.814078	-0.002509	0.000614	0.000825
00363	14118517	0.066773	0.051525	9.789361	-0.006667	-0.001758	-0.001001
00364	14118567	0.060522	0.042197	9.804485	-0.007829	0.001609	-0.002231
00365	14118617	0.048839	0.063461	9.805735	-0.004349	0.001065	0.001220
00366	14118667	0.054103	0.046622	9.796603	-0.003640	0.000487	-0.002470
00367	14118717	0.048685	0.041842	9.799507	-0.001966	-0.000476	0.001621
00368	14118767	0.037303	0.053650	9.801485	-0.004137	0.001156	-0.001407
00369	14118817	0.028859	0.054464	9.807278	-0.004110	0.002579	-0.000659
00370	14118867	0.040673	0.045127	9.807466	-0.002076	0.003070	0.000195
00371	14118917	0.037103	0.063484	9.807466	-0.006592	0.003216	0.000340
00372	14118967	0.039475	0.050820	9.804108	-0.003660	0.001196	-0.002500
00373	14119017	0.028392	0.068149	9.809427	-0.004052	0.005010	0.000954
00374	14119067	0.029603	0.046544	9.826688	-0.003123	0.001664	-0.000318
00375	14119117	0.051035	0.025569	9.809574	-0.001442	-0.002154	-0.001147
00376	14119167	0.042722	0.023001	9.808180	-0.004986	-0.001468	-0.000908
00377	14119217	0.046194	0.028481	9.800246	-0.001743	0.001626	0.001119
00378	14119267	0.046169	0.052226	9.797132	-0.001542	-0.000055	-0.002063
00379	14119317	0.044740	0.029264	9.803603	-0.005016	0.001663	-0.000150
00380	14119367	0.066644	0.010161	9.813577	-0.003502	-0.001963	-0.003485
00381	14119417	0.057404	0.036034	9.818172	0.000942	0.001405	-0.002356
00382	14119467	0.040891	0.042479	9.818480	-0.006518	0.002761	-0.000974
00383	14119517	0.047567	0.040266	9.817015	-0.002588	0.003967	-0.000725
00384	14119567	0.045206	0.035128	9.797135	-0.003178	-0.000663	0.000113
00385	14119617	0.046344	0.031434	9.800719	-0.005080	0.003692	-0.002962
00386	14119667	0.071921	0.049901	9.781887	-0.004885	0.003698	-0.000530
00387	14119717	0.054338	0.043402	9.802831	-0.006339	0.001957	-0.001369
00388	14119767	0.057795	0.027778	9.807137	-0.004206	0.001389	0.000063
00389	14119817	0.057798	0.037104	9.799946	-0.002883	0.000860	-0.001959
00390	14119867	0.057767	0.035607	9.806901	-0.003064	-0.002413	-0.001433
00391	14119917	0.057987	0.058155	9.807619	-0.002173	-0.002204	-0.000342
00392	14119967	0.049405	0.056281	9.794705	-0.004946	0.003819	-0.000107
00393	14120017	0.045153	0.032885	9.802170	-0.003319	0.001877	0.000580
00394	14120067	0.034646	0.057123	9.811086	-0.001929	0.000384	-0.000421
00395	14120117	0.065630	0.060476	9.797505	-0.004177	0.000437	-0.001927
00396	14120167	0.064153	0.039654	9.801830	-0.007330	0.000931	-0.002877
00397	14120217	0.056332	0.041409	9.793477	-0.005353	0.000089	-0.003170
00398	14120267	0.038468	0.052470	9.800278	-0.004590	0.002795	0.001711
00399	14120317	0.039209	0.067161	9.805779	-0.004420	0.002377	0.001808
00400	14120367	0.044418	0.055332	9.806011	-0.004759	-0.001478	-0.002929
00401	14120417	0.064262	0.043433	9.811168	-0.002916	0.003140	-0.001401
00402	14120467	0.075024	0.043463	9.809439	-0.008053	-0.000273	0.000355
00403	14120517	0.040995	0.037266	9.816322	-0.008479	0.001948	-0.002222
00404	14120567	0.055803	0.053562	9.808577	-0.004262	0.002510	0.001422
00405	14120617	0.047061	0.034402	9.792568	-0.006631	0.002204	-0.000820
00406	14120667	0.056978	0.040883	9.803304	-0.003281	0.000227	-0.003243
00407	14120717	0.055699	0.039989	9.810736	-0.004952	0.004685	-0.003468
00408	14120767	0.046616	0.032824	9.801923	-0.005852	0.000863	-0.001822
00409	14120817	0.036294	0.045126	9.784952	-0.003270	0.003262	-0.001817
00410	14120867	0.040040	0.030696	9.792131	-0.001709	0.001781	0.001665
00411	14120917	0.052328	0.041058	9.820580	-0.000546	0.001986	-0.001444
00412	14120967	0.040141	0.046995	9.816329	-0.006650	0.001883	-0.001333
00413	14121017	0.066884	0.024139	9.818357	-0.005123	-0.000127	-0.002376
00414	14121067	0.069887	0.027989	9.813789	-0.005186	0.002038	-0.001051
00415	14121117	0.058453	0.010002	9.804502	-0.004080	0.004640	-0.000591
00416	14121167	0.047645	0.046498	9.798314	-0.004168	0.002084	-0.002588
00417	14121217	0.054490	0.047210	9.800919	-0.003900	0.002032	0.001419
00418	14121267	0.058518	0.017225	9.799472	-0.005423	0.000422	0.000323
00419	14121317	0.078867	0.029633	9.795047	-0.003844	0.001059	-0.001027
00420	14121367	0.061691	0.027676	9.787946	-0.002135	0.003704	-0.001239
00421	14121417	0.061231	0.023715	9.792023	-0.005763	0.003256	0.000755
00422	14121467	0.055421	0.032208	9.796121	-0.002261	0.002705	-0.000826
00423	14121517	0.060280	0.025276	9.818157	-0.001763	-0.001937	0.000715
00424	14121567	0.043225	0.050368	9.802650	-0.004573	0.003950	-0.003152
00425	14121617	0.064960	0.045499	9.813083	-0.005831	0.000352	0.000806
00426	14121667	0.054919	0.041683	9.798532	-0.000131	-0.001367	-0.003001
00427	14121717	0.072627	0.045635	9.811134	-0.005252	0.001000	-0.000958
00428	14121767	0.048727	0.054574	9.804061	-0.001827	0.000831	-0.004171
00429	14121817	0.054147	0.042506	9.788457	-0.004749	0.001830	0.003789
00430	14121867	0.057683	0.051649	9.817919	0.001071	0.001536	-0.000874
00431	14121917	0.043119	0.058773	9.812241	-0.004429	0.000239	-0.002244
00432	14121967	0.047733	0.053473	9.805255	-0.006229	0.002925	0.000148
00433	14122017	0.051763	0.041035	9.785828	-0.005151	0.004236	0.000535
00434	14122067	0.053443	0.040414	9.799248	-0.003073	-0.000057	0.000057
00435	14122117	0.042001	0.063002	9.815352	-0.003098	0.003848	-0.002741
00436	14122167	0.056249	0.047273	9.818164	-0.002995	0.004821	0.000437
00437	14122217	0.048978	0.049804	9.799032	-0.003633	0.001584	0.001289
00438	14122267	0.056883	0.034066	9.798270	-0.003312	0.000558	0.000866
00439	14122317	0.035464	0.043468	9.813719	-0.005610	-0.000713	-0.000513
00440	14122367	0.049724	0.045807	9.810050	-0.005807	0.000708	0.001256
00441	14122417	0.042749	0.035664	9.803617	-0.003254	0.000652	-0.001250
00442	14122467	0.038996	0.043346	9.807472	-0.005920	0.002222	0.001071
00443	14122517	0.049322	0.036934	9.807418	-0.003370	0.005459	-0.001196
00444	14122567	0.032214	0.054627	9.799827	-0.002712	0.003958	-0.000466
00445	14122617	0.044317	0.038314	9.819183	-0.003326	0.000776	-0.002664
00446	14122667	0.032665	0.049141	9.809425	0.001738	-0.001520	-0.000921
00447	14122717	0.057568	0.041880	9.808329	-0.006291	0.003663	-0.000589
00448	14122767	0.042674	0.043700	9.804327	-0.006524	0.000083	0.001611
00449	14122817	0.040360	0.039070	9.800751	-0.003026	0.001658	0.001030
00450	14122867	0.046660	0.023833	9.801429	-0.006843	0.004175	0.002014
00451	14122917	0.073516	0.015064	9.796274	-0.003828	0.001381	-0.003108
00452	14122967	0.044398	0.043772	9.798341	-0.005650	-0.001386	0.001759
00453	14123017	0.076949	0.030190	9.794339	-0.001401	0.000417	-0.004242
00454	14123067	0.070427	0.020457	9.798214	-0.003441	-0.001712	-0.001524
00455	14123117	0.066310	0.033532	9.803978	0.001930	0.001545	-0.002766
00456	14123167	0.052288	0.041950	9.789187	-0.003691	0.002760	-0.007550
00457	14123217	0.033294	0.042483	9.817322	-0.003938	0.000026	-0.000196
00458	14123267	0.060296	0.054952	9.811671	-0.004987	0.001650	-0.002302
00459	14123317	0.043478	0.055321	9.810564	-0.002154	-0.001680	0.000976
00460	14123367	0.060734	0.025201	9.806640	-0.004172	0.001115	-0.003073
00461	14123417	0.053108	0.050573	9.798055	-0.005542	-0.000905	-0.000840
00462	14123467	0.050516	0.040711	9.803091	-0.005902	0.002344	-0.001684
00463	14123517	0.046652	0.056324	9.787769	-0.005182	0.000741	-0.003202
00464	14123567	0.037927	0.058857	9.800282	-0.006061	0.003538	-0.001422
00465	14123617	0.059901	0.024370	9.798262	-0.002699	0.000238	-0.001644
00466	14123667	0.049313	0.046768	9.809820	-0.006448	-0.001502	-0.000136
00467	14123717	0.039465	0.043502	9.806028	-0.001762	0.002132	-0.000513
00468	14123767	0.043889	0.031339	9.789951	-0.006235	0.000627	-0.001819
00469	14123817	0.031807	0.042741	9.820450	-0.000169	0.001325	0.000669
00470	14123867	0.030176	0.060338	9.824053	-0.001918	0.000799	-0.002985
00471	14123917	0.043034	0.043518	9.817029	-0.006176	0.001051	-0.001431
00472	14123967	0.063997	0.049562	9.797269	-0.004995	0.003237	-0.000242
00473	14124017	0.057987	0.039023	9.793947	-0.007773	0.001927	-0.000399
00474	14124067	0.054928	0.030867	9.804035	-0.004394	0.001244	-0.000290
00475	14124117	0.029219	0.063863	9.812789	-0.002891	0.001395	-0.001859
00476	14124167	0.045379	0.056896	9.802639	-0.002204	-0.000432	-0.002251
00477	14124217	0.026385	0.057994	9.821911	-0.002959	0.001462	-0.002304
00478	14124267	0.062863	0.033343	9.821251	-0.000471	0.001737	0.001279
00479	14124317	0.062675	0.029137	9.824847	-0.006437	0.003176	-0.002962
00480	14124367	0.055198	0.038456	9.821524	-0.001607	0.003262	-0.001661
00481	14124417	0.036470	0.056113	9.813709	-0.002535	0.001607	0.001926
00482	14124467	0.037193	0.049953	9.796216	-0.004177	-0.000623	-0.001186
00483	14124517	0.033375	0.047279	9.812776	-0.003322	-0.002191	0.000527
00484	14124567	0.033311	0.046809	9.797431	-0.004976	0.002690	-0.000691
00485	14124617	0.074276	0.029416	9.802488	-0.004450	0.001784	-0.003616
00486	14124667	0.052881	0.041356	9.808119	-0.006179	-0.000051	-0.001667
00487	14124717	0.046113	0.037934	9.828045	-0.005446	0.001193	-0.001342
00488	14124767	0.056237	0.035977	9.811701	-0.001798	0.003193	-0.001568
00489	14124817	0.044704	0.038696	9.824218	-0.004464	0.002900	0.003538
00490	14124867	0.067009	0.038790	9.806843	-0.003502	0.000385	-0.001572
00491	14124917	0.080974	0.030722	9.789042	-0.004779	0.002566	0.001548
00492	14124967	0.064118	0.048181	9.823873	-0.003933	0.000995	0.001284
00493	14125017	0.063803	0.043663	9.808781	-0.005822	0.000891	-0.002143
00494	14125067	0.056026	0.043876	9.789645	-0.005123	0.003070	-0.001650
00495	14125117	0.047146	0.053368	9.810299	-0.005203	0.004949	0.000187
00496	14125167	0.060308	0.042953	9.793218	-0.002792	0.003175	-0.002617
00497	14125217	0.040666	0.061311	9.814884	-0.004770	0.001878	-0.003195
00498	14125267	0.039850	0.046082	9.821839	-0.003055	0.002629	0.000843
00499	14125317	0.045200	0.041213	9.818701	-0.002661	0.002176	-0.001885
00500	14125367	0.050822	0.052903	9.801658	-0.003881	0.002452	0.000488
00501	14125417	0.047746	0.047726	9.792567	-0.004087	0.000668	-0.001889
00502	14125467	0.048629	0.057280	9.809817	-0.002638	0.000304	-0.001927
00503	14125517	0.059805	0.025655	9.805939	-0.004180	-0.000694	-0.003184
00504	14125567	0.054635	0.037998	9.797800	-0.007249	0.002220	-0.004343
00505	14125617	0.042085	0.048644	9.811287	-0.004210	0.000803	0.002308
00506	14125667	0.044377	0.049371	9.806713	-0.005319	0.004225	-0.003151
00507	14125717	0.047473	0.041814	9.794717	-0.004663	0.002559	-0.003160
00508	14125767	0.060508	0.035187	9.818624	-0.004544	0.002047	-0.000825
00509	14125817	0.036331	0.054341	9.798615	-0.008418	0.002208	0.000665
00510	14125867	0.054869	0.054819	9.812416	-0.006942	0.001006	-0.000118
00511	14125917	0.054820	0.041914	9.824407	-0.006634	0.004499	0.000218
00512	14125967	0.072972	0.035777	9.807299	-0.003380	0.001485	-0.002658
00513	14126017	0.053544	0.046478	9.799483	-0.006088	0.003378	-0.001552
00514	14126067	0.042978	0.047841	9.822790	-0.006545	0.000526	-0.002047
00515	14126117	0.053159	0.040644	9.810753	-0.005252	0.000229	0.000454
00516	14126167	0.074342	0.026344	9.807542	-0.002800	-0.002565	0.001130
00517	14126217	0.061485	0.040923	9.794891	-0.006409	0.003373	-0.001038
00518	14126267	0.063108	0.029221	9.792004	-0.004514	0.001952	-0.000570
00519	14126317	0.036421	0.042684	9.788311	-0.003766	-0.003783	-0.002778
00520	14126367	0.050707	0.040508	9.821795	-0.003116	0.000630	0.001827
00521	14126417	0.043930	0.046860	9.817497	-0.003958	0.001636	-0.002141
00522	14126467	0.047091	0.059261	9.815326	-0.005600	0.003930	-0.003599
00523	14126517	0.055863	0.055246	9.801625	-0.008322	0.001109	-0.000689
00524	14126567	0.045744	0.037022	9.812940	-0.003315	0.002786	0.000684
00525	14126617	0.046495	0.036448	9.817497	-0.005005	0.001200	-0.001756
00526	14126667	0.055359	0.043523	9.812660	-0.003532	0.002553	0.001097
00527	14126717	0.042789	0.051294	9.804572	-0.004903	0.000267	-0.000737
00528	14126767	0.053310	0.032246	9.803804	-0.003642	-0.001296	-0.001101
00529	14126817	0.045528	0.027002	9.796415	-0.006219	0.002504	0.000403
00530	14126867	0.049395	0.038654	9.814848	-0.004741	-0.000627	0.001407
00531	14126917	0.046059	0.044511	9.807915	-0.000862	-0.001314	-0.002329
00532	14126967	0.054574	0.040439	9.815781	-0.003839	-0.000101	-0.000802
00533	14127017	0.056107	0.055093	9.803307	-0.002427	-0.001106	0.001780
00534	14127067	0.048173	0.034668	9.811250	-0.004266	0.001115	-0.002976
00535	14127117	0.046868	0.036866	9.793291	-0.000784	0.002665	0.000551
00536	14127167	0.032496	0.048069	9.808700	-0.003212	0.001327	-0.001732
00537	14127217	0.040406	0.058690	9.805786	-0.001205	-0.002810	-0.004736
00538	14127267	0.057885	0.038609	9.806893	-0.006186	0.002079	-0.004604
00539	14127317	0.054784	0.042852	9.793722	-0.003617	0.004999	-0.003151
00540	14127367	0.058008	0.042021	9.788920	-0.004172	0.000343	-0.001575
00541	14127417	0.042653	0.050624	9.790193	-0.003042	0.001811	-0.003584
00542	14127467	0.049281	0.043470	9.797107	-0.002985	0.003172	-0.002200
00543	14127517	0.064949	0.028158	9.803264	-0.001803	0.002322	-0.000864
00544	14127567	0.058271	0.039157	9.817909	-0.007245	0.004452	-0.003401
00545	14127617	0.037576	0.047116	9.807714	-0.004680	0.002077	-0.002584
00546	14127667	0.064314	0.051575	9.832747	-0.006925	0.000291	-0.002464
00547	14127717	0.057506	0.042727	9.797317	-0.001287	-0.001603	0.001550
00548	14127767	0.053811	0.047809	9.809067	-0.003941	-0.000042	-0.001992
00549	14127817	0.044497	0.051939	9.799053	-0.003719	-0.000943	-0.002830
00550	14127867	0.064922	0.042328	9.803264	-0.006060	-0.001495	0.001468
00551	14127917	0.065130	0.040906	9.801347	-0.005474	0.001293	0.000425
00552	14127967	0.068928	0.036481	9.806598	-0.002763	0.001441	-0.000194
00553	14128017	0.049472	0.040378	9.825630	-0.004465	0.000568	-0.000992
00554	14128067	0.052819	0.048084	9.811955	-0.001593	-0.000390	-0.002737
00555	14128117	0.047049	0.032703	9.800239	-0.003543	0.002281	-0.006402
00556	14128167	0.066228	0.034739	9.820516	-0.003782	0.002056	-0.003523
00557	14128217	0.064440	0.019770	9.810225	-0.002101	-0.000890	-0.005113
00558	14128267	0.054116	0.041454	9.808589	-0.004595	0.000398	-0.002658
00559	14128317	0.056111	0.044407	9.813849	-0.005907	0.001871	0.002319
00560	14128367	0.065217	0.034485	9.803508	-0.005202	-0.001056	0.004287
00561	14128417	0.048686	0.041136	9.797114	-0.002060	0.000383	-0.000422
00562	14128467	0.055641	0.026511	9.807383	-0.004029	0.003127	0.000718
00563	14128517	0.055761	0.028189	9.793008	-0.003745	0.003062	-0.001303
00564	14128567	0.051025	0.044915	9.792779	-0.005262	0.001389	-0.000984
00565	14128617	0.059679	0.030033	9.784842	-0.003960	-0.001625	-0.002384
00566	14128667	0.053998	0.053312	9.797800	-0.001334	0.001552	-0.002054
00567	14128717	0.041238	0.061728	9.803377	-0.004376	0.000232	-0.006573
00568	14128767	0.035030	0.055033	9.809644	-0.001591	0.002782	-0.000538
00569	14128817	0.057924	0.039321	9.798265	-0.001261	0.002395	-0.001571
00570	14128867	0.036365	0.051491	9.800773	-0.003811	0.000897	-0.002660
00571	14128917	0.050047	0.041434	9.805982	-0.003944	0.000250	-0.001223
00572	14128967	0.049324	0.035137	9.817959	-0.001191	0.002504	0.002405
00573	14129017	0.033955	0.053808	9.800536	-0.007244	0.003487	-0.000679
00574	14129067	0.061885	0.034498	9.802322	-0.004722	0.000230	-0.003303
00575	14129117	0.039994	0.043835	9.814653	-0.003438	0.001387	-0.002594
00576	14129167	0.064457	0.049502	9.817410	-0.003813	-0.001042	-0.003219
00577	14129217	0.062585	0.049583	9.810949	-0.003390	-0.000355	-0.002187
00578	14129267	0.070589	0.053548	9.805862	-0.004359	0.001115	-0.000638
00579	14129317	0.057067	0.059936	9.798747	-0.002298	-0.001501	-0.001971
00580	14129367	0.060460	0.039827	9.813587	-0.003456	0.002870	-0.004032
00581	14129417	0.053430	0.047577	9.809312	-0.004696	0.003654	-0.003733
00582	14129467	0.049895	0.050322	9.809567	-0.005084	0.002648	-0.004023
00583	14129517	0.057959	0.050675	9.810007	-0.005131	0.003393	-0.002256
00584	14129567	0.055384	0.055391	9.813382	-0.003054	0.000069	-0.003082
00585	14129617	0.056133	0.058154	9.805706	-0.002825	-0.002763	0.000395
00586	14129667	0.066256	0.045622	9.816195	0.000199	0.005808	-0.002806
00587	14129717	0.058426	0.049789	9.822227	-0.005682	0.000607	-0.000737
00588	14129767	0.053390	0.036536	9.798525	-0.007829	0.004867	0.000831
00589	14129817	0.068381	0.031484	9.813547	-0.007580	0.003997	-0.001353
00590	14129867	0.035042	0.061960	9.801013	-0.001884	0.002035	-0.000577
00591	14129917	0.052451	0.043501	9.809078	-0.006460	-0.000444	-0.003459
00592	14129967	0.048237	0.036303	9.800712	-0.002427	-0.000173	-0.000711
00593	14130017	0.045232	0.045570	9.798087	-0.001056	0.003789	-0.003930
00594	14130067	0.068831	0.038384	9.820736	-0.003051	0.001205	-0.001183
00595	14130117	0.066712	0.030674	9.819557	-0.006250	0.002047	-0.004602
00596	14130167	0.059986	0.033006	9.818619	-0.005624	0.003476	-0.005171
00597	14130217	0.051660	0.034713	9.812918	-0.005329	0.006583	-0.004322
00598	14130267	0.051775	0.027821	9.824430	-0.004842	-0.000697	-0.000902
00599	14130317	0.055044	0.035808	9.810023	-0.003187	0.002724	0.000426
00600	14130367	0.053522	0.026798	9.805952	-0.003708	0.002841	-0.000470
00601	14130417	0.059838	0.030470	9.812399	-0.005671	0.003293	-0.000843
00602	14130467	0.047386	0.040025	9.818215	-0.003685	0.001132	-0.001183
00603	14130517	0.056311	0.034887	9.813855	-0.007273	0.000459	0.000874
00604	14130567	0.054987	0.038128	9.823442	-0.003027	0.001726	0.000680
00605	14130617	0.045212	0.065118	9.805993	-0.001612	0.001393	-0.001376
00606	14130667	0.034555	0.045075	9.804861	-0.004555	-0.000758	-0.001094
00607	14130717	0.047114	0.056582	9.817245	-0.006951	0.003100	-0.004078
00608	14130767	0.050864	0.021336	9.801904	-0.003349	0.000488	-0.001249
00609	14130817	0.043477	0.030918	9.824228	-0.002728	0.000246	-0.000420
00610	14130867	0.057129	0.062503	9.810723	-0.004964	0.001305	0.001516
00611	14130917	0.043221	0.056112	9.834288	-0.004805	0.002341	0.000524
00612	14130967	0.039534	0.073334	9.820162	-0.003621	0.003296	-0.000784
00613	14131017	0.056325	0.050970	9.811216	-0.002510	-0.000530	0.000118
00614	14131067	0.053694	0.054310	9.806672	-0.001837	0.002521	-0.000889
00615	14131117	0.076953	0.039689	9.802968	-0.002578	0.001404	-0.001894
00616	14131167	0.047238	0.053723	9.806945	-0.003431	0.002594	0.001550
00617	14131217	0.057801	0.054727	9.812408	-0.004597	-0.003306	0.001232
00618	14131267	0.059912	0.045730	9.813599	-0.002240	0.001795	-0.003721
00619	14131317	0.051570	0.048019	9.808840	-0.005018	0.002851	-0.001298
00620	14131367	0.050376	0.040177	9.809330	-0.003428	-0.000805	-0.000008
00621	14131417	0.075083	0.016434	9.817606	-0.002798	0.000143	-0.001674
00622	14131467	0.054322	0.027434	9.805003	-0.004808	-0.000155	-0.003977
00623	14131517	0.070129	0.052617	9.803473	-0.003360	-0.000159	-0.002346
00624	14131567	0.048162	0.024527	9.809351	-0.003120	0.000333	-0.000963
00625	14131617	0.048667	0.039442	9.804073	-0.000194	0.001232	0.002433
00626	14131667	0.061473	0.035546	9.816951	-0.001436	0.000943	0.000348
00627	14131717	0.041543	0.049613	9.803375	-0.006449	0.003694	-0.001412
00628	14131767	0.035659	0.043804	9.810836	-0.004905	0.003434	-0.000782
00629	14131817	0.048219	0.032257	9.816533	-0.002956	0.000808	-0.007305
00630	14131867	0.040444	0.052746	9.803865	-0.003107	-0.000154	-0.002793
00631	14131917	0.053521	0.045838	9.815298	-0.003981	0.002120	-0.003706
00632	14131967	0.049353	0.047274	9.790639	-0.007330	0.000800	-0.003866
00633	14132017	0.039113	0.045089	9.803636	-0.005891	0.000124	-0.000858
00634	14132067	0.044347	0.043745	9.793542	-0.001894	0.002934	-0.003611
00635	14132117	0.040915	0.041043	9.815371	-0.000636	0.000957	0.000127
00636	14132167	0.057010	0.025537	9.820078	-0.007556	0.002091	-0.001936
00637	14132217	0.049450	0.039092	9.806702	-0.003287	-0.000412	-0.001573
00638	14132267	0.049599	0.052896	9.819637	-0.003337	-0.000373	0.003806
00639	14132317	0.045653	0.043757	9.817984	-0.005054	0.000879	-0.001724
00640	14132367	0.046065	0.035213	9.824217	-0.003714	-0.002836	0.001584
00641	14132417	0.050639	0.052268	9.807892	-0.005706	-0.000679	-0.000164
00642	14132467	0.053864	0.042748	9.801395	-0.004039	0.001221	-0.000121
00643	14132517	0.035726	0.060993	9.802680	-0.004285	0.004058	-0.001515
00644	14132567	0.059620	0.051916	9.810952	-0.002588	0.001958	-0.000187
00645	14132617	0.072269	0.041832	9.794118	-0.006425	-0.000274	-0.001474
00646	14132667	0.071814	0.031980	9.806109	-0.004786	-0.000370	0.000061
00647	14132717	0.062180	0.042423	9.813345	-0.004360	-0.000822	-0.001129
00648	14132767	0.057631	0.045059	9.806659	-0.003648	0.000067	0.000288
00649	14132817	0.046821	0.048352	9.814380	-0.004092	0.001732	-0.003070
00650	14132867	0.058640	0.042351	9.804013	-0.001677	-0.000608	0.000051
00651	14132917	0.052737	0.043312	9.803327	-0.006834	-0.000544	-0.001406
00652	14132967	0.050288	0.046242	9.802142	-0.002552	-0.000535	-0.002504
00653	14133017	0.063772	0.031346	9.806631	-0.005911	-0.000300	-0.000869
00654	14133067	0.042448	0.049973	9.825660	-0.006738	0.000620	-0.002521
00655	14133117	0.066607	0.030786	9.803495	-0.003858	0.003742	-0.000591
00656	14133167	0.055075	0.043187	9.824887	-0.001110	0.001694	-0.000357
00657	14133217	0.048214	0.043817	9.818922	-0.003793	0.004514	-0.003631
00658	14133267	0.065309	0.040347	9.795113	-0.003365	0.003563	0.001812
00659	14133317	0.047841	0.036924	9.820847	-0.003166	0.000979	0.000416
00660	14133367	0.065754	0.041898	9.800621	-0.004165	0.003190	-0.000530
00661	14133417	0.055684	0.036326	9.803075	-0.003561	-0.000574	0.001820
00662	14133467	0.047605	0.054770	9.820126	-0.001870	0.002450	-0.002049
00663	14133517	0.050652	0.046640	9.811963	-0.002482	0.002967	0.002735
00664	14133567	0.058127	0.033504	9.818398	-0.003327	0.003304	0.001393
00665	14133617	0.043327	0.045561	9.807677	-0.006170	0.001792	-0.001778
00666	14133667	0.047193	0.034944	9.812220	-0.004461	0.003437	-0.002293
00667	14133717	0.057588	0.054779	9.791078	-0.004408	0.000796	0.000003
00668	14133767	0.050088	0.041737	9.794235	-0.000624	0.001872	0.004072
00669	14133817	0.054134	0.044227	9.814345	-0.002585	-0.003142	0.001869
00670	14133867	0.058623	0.035912	9.815274	-0.004678	0.000210	0.000001
00671	14133917	0.049858	0.052347	9.821079	-0.005959	-0.001550	0.002304
00672	14133967	0.035297	0.046232	9.803654	-0.006084	-0.000817	-0.000159
00673	14134017	0.060480	0.038876	9.812628	-0.002724	0.002950	-0.003485
00674	14134067	0.049433	0.031507	9.807178	-0.000890	0.000892	0.000764
00675	14134117	0.043372	0.046915	9.817268	-0.002341	0.004351	0.000627
00676	14134167	0.073207	0.040234	9.819046	-0.006006	0.003836	-0.001135
00677	14134217	0.046570	0.059301	9.816299	-0.002123	0.003415	-0.002073
00678	14134267	0.065629	0.031537	9.813813	-0.004495	0.000274	-0.002050
00679	14134317	0.061753	0.048068	9.785784	-0.003007	-0.000509	-0.003917
00680	14134367	0.063831	0.059436	9.800388	-0.004743	0.002207	-0.002424
00681	14134417	0.052144	0.048070	9.793491	-0.004657	0.002599	-0.000852
00682	14134467	0.059344	0.051759	9.819105	-0.006002	0.002836	0.001047
00683	14134517	0.049802	0.033424	9.797350	-0.006260	-0.002232	0.003550
00684	14134567	0.051753	0.053268	9.818427	-0.007707	0.000897	-0.000180
00685	14134617	0.046416	0.049039	9.796880	-0.007360	0.002637	-0.005488
00686	14134667	0.041005	0.052981	9.790444	-0.002796	-0.000995	-0.004593
00687	14134717	0.049993	0.057997	9.805729	-0.007229	0.003169	0.001018
00688	14134767	0.051316	0.032296	9.802616	-0.002379	0.001707	0.003336
00689	14134817	0.058163	0.047719	9.804020	-0.003615	-0.002261	-0.001072
00690	14134867	0.045648	0.052096	9.805034	-0.003581	0.000971	-0.000317
00691	14134917	0.061868	0.028438	9.809996	-0.005095	0.001301	-0.000476
00692	14134967	0.051024	0.048685	9.816031	-0.002127	0.002944	0.003184
00693	14135017	0.045241	0.040776	9.817743	-0.001676	0.001391	-0.001094
00694	14135067	0.062039	0.042730	9.795133	-0.002540	-0.000986	-0.002383
00695	14135117	0.053312	0.050865	9.808119	-0.006705	-0.001537	0.000158
00696	14135167	0.063625	0.050821	9.818368	-0.006759	0.000904	-0.006176
00697	14135217	0.054173	0.044354	9.819131	-0.003652	0.002460	0.002673
00698	14135267	0.047886	0.051622	9.835227	-0.003731	-0.000393	-0.001059
00699	14135317	0.061124	0.037880	9.792024	0.001217	0.000929	0.000504
00700	14135367	0.049114	0.041876	9.810537	-0.001495	-0.001054	0.003420
00701	14135417	0.057295	0.029722	9.815288	-0.004280	-0.000331	0.000764
00702	14135467	0.037271	0.045501	9.807476	-0.003967	0.004192	0.000178
00703	14135517	0.049127	0.037293	9.808378	-0.004618	0.001174	-0.001597
00704	14135567	0.044182	0.044981	9.816301	-0.005338	0.002743	-0.002868
00705	14135617	0.031306	0.048317	9.820692	-0.004113	0.001412	-0.002172
00706	14135667	0.061753	0.017362	9.816471	-0.000317	0.000896	-0.000653
00707	14135717	0.041871	0.061526	9.802415	-0.003209	0.003532	0.000592
00708	14135767	0.064713	0.025923	9.821245	-0.005132	0.000162	-0.003012
00709	14135817	0.046969	0.055676	9.789455	-0.001804	-0.001546	0.002167
00710	14135867	0.038116	0.050325	9.785419	-0.004084	0.002672	-0.002293
00711	14135917	0.042963	0.052702	9.807439	-0.004889	0.002686	-0.002065
00712	14135967	0.059197	0.036151	9.801619	-0.004757	0.000362	-0.004168
00713	14136017	0.051020	0.039025	9.809805	-0.004440	0.001732	0.000588
00714	14136067	0.045396	0.054453	9.817023	-0.006199	-0.001432	-0.000481
00715	14136117	0.058489	0.037689	9.807856	-0.004540	-0.001503	-0.002221
00716	14136167	0.049701	0.050119	9.809808	-0.005008	0.000867	-0.007493
00717	14136217	0.057993	0.041068	9.820317	-0.004004	0.003093	-0.001300
00718	14136267	0.045313	0.039437	9.793780	-0.002773	0.002496	-0.003580
00719	14136317	0.034832	0.057323	9.806285	-0.005377	0.001004	-0.001334
00720	14136367	0.063471	0.036075	9.805433	-0.006193	-0.000662	-0.002919
00721	14136417	0.039573	0.041804	9.812738	-0.006434	0.000920	-0.002136
00722	14136467	0.059334	0.045946	9.799220	-0.004216	0.000568	-0.001926
00723	14136517	0.064209	0.045080	9.816205	-0.009929	0.001112	-0.002514
00724	14136567	0.051804	0.045075	9.830408	-0.005689	0.000640	-0.002074
00725	14136617	0.057383	0.035554	9.821523	-0.003466	0.001162	-0.002628
00726	14136667	0.045620	0.029280	9.805519	-0.003916	0.002450	0.000299
00727	14136717	0.044115	0.057327	9.811990	-0.007018	0.001163	-0.003060
00728	14136767	0.054386	0.037329	9.799965	-0.004154	0.001732	-0.001854
00729	14136817	0.054102	0.046345	9.798048	-0.003512	-0.000123	0.001536
00730	14136867	0.051645	0.051571	9.808118	-0.005630	-0.001331	-0.003885
00731	14136917	0.043708	0.044553	9.815357	-0.003879	0.001160	-0.001181
00732	14136967	0.048249	0.050620	9.795915	-0.004371	0.003633	-0.000203
00733	14137017	0.033892	0.042629	9.792883	-0.003419	0.001615	-0.002687
00734	14137067	0.041456	0.045404	9.810092	-0.007887	-0.000264	0.001165
00735	14137117	0.047573	0.043051	9.787775	-0.007311	-0.000315	0.002154
00736	14137167	0.050112	0.023717	9.801430	-0.003004	0.000954	0.001764
00737	14137217	0.047459	0.048242	9.815333	-0.007702	0.002637	-0.001674
00738	14137267	0.057866	0.040743	9.797313	-0.003380	-0.002645	-0.001649
00739	14137317	0.050077	0.047548	9.820115	-0.005020	0.003948	-0.001674
00740	14137367	0.032046	0.050549	9.809666	-0.006328	0.000025	0.002603
00741	14137417	0.054810	0.039288	9.797333	-0.001755	0.001674	-0.002401
00742	14137467	0.068622	0.037376	9.809475	-0.003142	0.003042	-0.003096
00743	14137517	0.048015	0.030457	9.815581	-0.007920	0.000469	-0.002649
00744	14137567	0.041727	0.058944	9.807212	-0.001416	0.003301	-0.001881
00745	14137617	0.064784	0.042277	9.797031	-0.001963	0.001624	0.003782
00746	14137667	0.062350	0.031236	9.801838	-0.001845	0.000515	-0.001004
00747	14137717	0.043881	0.056153	9.800007	-0.003644	0.003105	0.000753
00748	14137767	0.046323	0.038755	9.807439	-0.003623	0.001068	-0.002398
00749	14137817	0.059452	0.034857	9.796819	-0.003969	0.001927	-0.001693
00750	14137867	0.050995	0.048448	9.809091	-0.006138	-0.001501	-0.003178
00751	14137917	0.072652	0.028949	9.793646	-0.002666	0.001848	-0.005447
00752	14137967	0.049192	0.062527	9.790877	-0.005383	-0.000933	0.000155
00753	14138017	0.047306	0.054258	9.801440	-0.003559	-0.000931	-0.000491
00754	14138067	0.056449	0.061841	9.808092	-0.006031	0.002506	-0.002446
00755	14138117	0.036859	0.042244	9.817548	-0.004433	0.000204	-0.004326
00756	14138167	0.063999	0.044175	9.822203	-0.003777	-0.000329	-0.002984
00757	14138217	0.054101	0.040933	9.801404	-0.001782	0.002808	-0.000988
00758	14138267	0.042596	0.044829	9.809847	-0.003944	0.001122	-0.001757
00759	14138317	0.052556	0.034282	9.793504	-0.004365	0.002178	-0.002459
00760	14138367	0.037447	0.069918	9.806508	-0.007047	0.004161	-0.004169
00761	14138417	0.036272	0.056230	9.808920	-0.002667	0.000145	-0.002247
00762	14138467	0.045367	0.063431	9.810547	-0.002329	0.002861	-0.000955
00763	14138517	0.043023	0.045610	9.822545	-0.002936	0.000562	-0.002436
00764	14138567	0.050585	0.017107	9.812209	-0.005363	0.000719	0.001768
00765	14138617	0.063268	0.058548	9.806872	-0.006970	-0.003185	0.001205
00766	14138667	0.051864	0.056846	9.827052	-0.002705	0.002500	-0.002270
00767	14138717	0.038014	0.066825	9.806990	-0.007444	0.001544	-0.003220
00768	14138767	0.078519	0.041414	9.798161	-0.005829	-0.002173	-0.001968
00769	14138817	0.061717	0.041944	9.799684	-0.002324	0.001638	0.000064
00770	14138867	0.030112	0.054733	9.805114	-0.002508	0.000981	-0.005092
00771	14138917	0.034911	0.070487	9.814917	-0.004815	-0.000866	-0.003367
00772	14138967	0.034117	0.053405	9.813724	-0.006317	0.001439	-0.001717
00773	14139017	0.070583	0.034167	9.818345	-0.002115	-0.000943	0.000049
00774	14139067	0.058218	0.038206	9.796352	0.000594	0.003301	-0.002497
00775	14139117	0.052943	0.039923	9.809319	-0.005681	0.000183	-0.004614
00776	14139167	0.063753	0.037704	9.800392	-0.002792	-0.000951	-0.000747
00777	14139217	0.051101	0.034617	9.800220	-0.003640	0.000773	-0.000801
00778	14139267	0.055742	0.041917	9.811214	-0.003060	0.001692	0.000456
00779	14139317	0.077518	0.053095	9.812305	-0.002840	0.001856	0.000359
00780	14139367	0.044249	0.052062	9.803611	-0.002673	-0.001764	-0.002741
00781	14139417	0.054596	0.040384	9.806907	-0.009219	0.001897	-0.003469
00782	14139467	0.063660	0.038760	9.805666	-0.003938	0.001662	-0.005221
00783	14139517	0.052867	0.035234	9.812186	-0.002564	0.004283	-0.001203
00784	14139567	0.045465	0.049181	9.805520	-0.004801	-0.000024	-0.001570
00785	14139617	0.065712	0.038789	9.817876	-0.005080	0.001683	-0.002299
00786	14139667	0.060294	0.037991	9.819110	-0.006787	-0.001090	-0.002182
00787	14139717	0.070671	0.030689	9.804435	-0.007577	0.000443	-0.003517
00788	14139767	0.051805	0.045230	9.792312	-0.004368	-0.000855	-0.002760
00789	14139817	0.056006	0.023557	9.805709	-0.001681	-0.000382	0.001430
00790	14139867	0.045994	0.038866	9.804074	-0.000812	0.003436	-0.000729
00791	14139917	0.058160	0.057139	9.801614	-0.007419	0.001798	-0.002323
00792	14139967	0.044135	0.059658	9.798093	-0.007275	0.001219	-0.002742
00793	14140017	0.050733	0.045414	9.801891	0.000095	0.002190	0.000157
00794	14140067	0.062630	0.046677	9.808307	-0.005406	0.000339	-0.007592
00795	14140117	0.068517	0.041013	9.804203	-0.001200	0.005523	-0.002547
00796	14140167	0.061517	0.047537	9.817657	-0.005714	0.002999	0.003193
00797	14140217	0.057913	0.032562	9.801393	-0.003228	-0.003555	-0.002521
00798	14140267	0.072678	0.036298	9.817369	-0.005366	0.000545	-0.001696
00799	14140317	0.042665	0.042874	9.813687	-0.002229	-0.001531	-0.001678
00800	14140367	0.053491	0.047236	9.815542	-0.005108	-0.000285	0.000288
00801	14140417	0.056976	0.025513	9.826310	-0.005027	0.003102	-0.001714
00802	14140467	0.062742	0.047613	9.810218	-0.006329	0.004246	0.002591
00803	14140517	0.056839	0.045161	9.816243	-0.004670	0.000847	-0.001408
00804	14140567	0.060384	0.046244	9.808558	-0.004565	0.002722	-0.001234
00805	14140617	0.040827	0.050019	9.822800	-0.005292	0.000186	-0.003074
00806	14140667	0.056912	0.046244	9.819597	-0.004546	0.005307	-0.000614
00807	14140717	0.052364	0.055398	9.791819	-0.005086	0.000606	-0.005670
00808	14140767	0.061996	0.046674	9.830360	-0.003926	0.001534	-0.003327
00809	14140817	0.034895	0.051426	9.803410	-0.006261	0.001624	-0.001781
00810	14140867	0.076058	0.035583	9.817827	-0.003362	0.000134	0.001182
00811	14140917	0.057906	0.028809	9.798987	-0.006367	0.000977	-0.000118
00812	14140967	0.053283	0.027766	9.814350	-0.005345	0.000965	-0.001404
00813	14141017	0.049847	0.041134	9.800461	-0.000889	0.000423	-0.004105
00814	14141067	0.026545	0.050458	9.805370	-0.002230	0.003891	-0.001071
00815	14141117	0.065447	0.030871	9.795831	-0.004660	0.001722	-0.000149
00816	14141167	0.064464	0.034097	9.810934	-0.006106	0.000791	0.000425
00817	14141217	0.058052	0.026103	9.808811	-0.002959	0.000596	0.002111
00818	14141267	0.054066	0.028640	9.803082	-0.007717	0.000685	-0.006462
00819	14141317	0.054006	0.064961	9.807858	-0.002213	0.001182	-0.001957
00820	14141367	0.037436	0.059140	9.815865	-0.003710	-0.000206	-0.002886
00821	14141417	0.058023	0.041227	9.824864	-0.005186	0.001163	-0.000314
00822	14141467	0.065083	0.037909	9.810694	-0.005015	0.001551	-0.001880
00823	14141517	0.035364	0.053131	9.804847	-0.004406	0.001495	-0.002812
00824	14141567	0.043805	0.040569	9.806240	-0.007398	0.003184	-0.002635
00825	14141617	0.056226	0.051517	9.785809	-0.005226	0.001327	0.000072
00826	14141667	0.052366	0.047681	9.799970	-0.005920	0.001890	-0.000977
00827	14141717	0.044701	0.045323	9.805514	-0.007135	0.004163	-0.000641
00828	14141767	0.032550	0.057201	9.814205	-0.004416	0.005244	0.000061
00829	14141817	0.046532	0.042006	9.797609	-0.004026	-0.000633	-0.005068
00830	14141867	0.022259	0.050033	9.813547	-0.000615	0.001010	-0.004137
00831	14141917	0.037153	0.044036	9.815630	-0.001440	-0.000492	-0.006294
00832	14141967	0.038480	0.046306	9.791899	-0.002152	0.000017	-0.003112
00833	14142017	0.049823	0.039074	9.808616	-0.002915	0.001069	-0.001663
00834	14142067	0.072431	0.020140	9.806345	-0.003505	0.002283	-0.003169
00835	14142117	0.066563	0.049123	9.807807	-0.005247	0.002965	-0.001746
00836	14142167	0.042547	0.048758	9.806973	-0.001694	0.002699	-0.005022
00837	14142217	0.047681	0.038955	9.810296	-0.005508	0.002283	0.000431
00838	14142267	0.034067	0.054851	9.814193	-0.004569	0.002784	-0.002514
00839	14142317	0.054704	0.034111	9.808832	-0.003283	-0.000715	-0.002124
00840	14142367	0.074365	0.048253	9.797228	-0.004715	-0.001831	-0.000652
00841	14142417	0.058945	0.049506	9.811200	-0.003315	0.002287	-0.003775
00842	14142467	0.052049	0.036680	9.805732	-0.004913	0.000225	-0.003780
00843	14142517	0.066314	0.047307	9.808768	-0.002544	0.003627	-0.001205
00844	14142567	0.052857	0.041389	9.808837	-0.004096	0.001725	-0.004029
00845	14142617	0.042572	0.042118	9.811760	-0.007299	0.002357	0.002294
00846	14142667	0.032435	0.045906	9.806542	-0.005173	-0.000685	-0.004552
00847	14142717	0.056751	0.039717	9.801150	-0.002624	0.002214	0.000777
00848	14142767	0.031415	0.051879	9.791450	-0.004393	0.001501	0.000488
00849	14142817	0.052724	0.037729	9.804047	-0.003495	0.000256	-0.000031
00850	14142867	0.048016	0.037098	9.794719	-0.003567	0.002348	-0.002972
00851	14142917	0.020269	0.062249	9.806358	-0.001216	0.002369	0.002316
00852	14142967	0.050582	0.040335	9.798060	-0.004147	0.001504	-0.002170
00853	14143017	0.048102	0.031333	9.798799	-0.004779	-0.000799	0.000001
00854	14143067	0.039864	0.057474	9.808425	-0.001679	0.001348	-0.002656
00855	14143117	0.080532	0.042341	9.792874	-0.001302	0.002945	0.000615
00856	14143167	0.048354	0.047110	9.801910	-0.006015	0.000957	0.000554
00857	14143217	0.045527	0.047671	9.788976	-0.002021	0.004152	-0.003126
00858	14143267	0.057932	0.042111	9.793951	-0.006624	0.002810	-0.003156
00859	14143317	0.073091	0.041965	9.820244	-0.003076	-0.000963	-0.000846
00860	14143367	0.051211	0.045541	9.818676	-0.003038	-0.002259	-0.001875
00861	14143417	0.054123	0.040707	9.812191	-0.002306	-0.001980	0.000528
00862	14143467	0.070757	0.034073	9.812586	-0.002002	0.002371	-0.004356
00863	14143517	0.036052	0.034119	9.800537	-0.007162	0.003804	-0.001541
00864	14143567	0.048604	0.049301	9.790880	-0.002848	0.003012	-0.000948
00865	14143617	0.037093	0.033147	9.820899	-0.004667	0.004878	-0.003470
00866	14143667	0.056853	0.019840	9.798765	-0.003770	-0.000365	-0.001797
00867	14143717	0.066238	0.048640	9.810442	-0.004798	0.004906	-0.004271
00868	14143767	0.050419	0.045881	9.807171	-0.006155	0.002173	-0.002228
00869	14143817	0.048561	0.046353	9.807177	-0.004136	0.001948	-0.004573
00870	14143867	0.058292	0.030985	9.798263	-0.003184	0.002458	-0.000406
00871	14143917	0.038031	0.042883	9.794773	-0.004181	-0.000666	-0.003209
00872	14143967	0.048968	0.047078	9.819162	-0.006874	0.000643	-0.003386
00873	14144017	0.044296	0.044566	9.808640	-0.006828	0.000962	-0.006142
00874	14144067	0.061472	0.047981	9.803520	-0.004134	0.000212	-0.000545
00875	14144117	0.065806	0.029470	9.791759	-0.005328	-0.000621	-0.001381
00876	14144167	0.053398	0.042701	9.807158	-0.001141	-0.000809	-0.005081
00877	14144217	0.045634	0.052498	9.796412	-0.002016	0.002927	-0.001814
00878	14144267	0.073399	0.023514	9.805378	-0.001834	0.001090	-0.001991
00879	14144317	0.058153	0.040086	9.804981	-0.004245	0.002661	-0.000755
00880	14144367	0.023016	0.048429	9.805627	-0.003909	0.002053	-0.002486
00881	14144417	0.070087	0.054491	9.818569	-0.006434	0.000846	-0.001816
00882	14144467	0.061502	0.043208	9.793452	-0.003394	0.002100	0.000326
00883	14144517	0.050630	0.053629	9.816749	-0.002926	-0.000636	-0.001001
00884	14144567	0.050976	0.036425	9.823707	-0.003218	0.000450	-0.000226
00885	14144617	0.055475	0.036484	9.820332	-0.006005	0.000896	0.002219
00886	14144667	0.074150	0.034672	9.811125	-0.008259	0.001810	-0.004725
00887	14144717	0.053387	0.045502	9.799968	-0.005969	0.000605	0.001384
00888	14144767	0.039723	0.046744	9.805064	-0.004070	0.002445	0.000814
00889	14144817	0.060425	0.027507	9.811683	-0.003593	0.001219	-0.001504
00890	14144867	0.045981	0.048555	9.822044	-0.002750	0.002982	-0.000662
00891	14144917	0.046552	0.043901	9.793289	-0.005674	-0.000016	-0.003876
00892	14144967	0.051639	0.051463	9.803811	-0.002769	-0.000673	-0.002639
00893	14145017	0.039466	0.051719	9.809857	-0.002781	-0.000054	0.000381
00894	14145067	0.072904	0.039107	9.820004	-0.004014	-0.000690	-0.001291
00895	14145117	0.058080	0.035912	9.798265	-0.004861	-0.001450	-0.002891
00896	14145167	0.057806	0.046051	9.809527	-0.002268	0.002025	0.000806
00897	14145217	0.050749	0.050967	9.820102	-0.004088	0.003497	-0.005014
00898	14145267	0.047533	0.054717	9.806707	-0.002678	-0.000573	-0.002346
00899	14145317	0.062230	0.028978	9.793934	-0.003194	0.000118	-0.006476
00900	14145367	0.052935	0.035477	9.810272	-0.003660	0.001583	0.001384
00901	14145417	0.055501	0.043815	9.812427	-0.001231	-0.000842	-0.003985
00902	14145467	0.071293	0.041696	9.792931	-0.002437	0.001278	0.001375
00903	14145517	0.065903	0.038694	9.810443	-0.003722	0.004549	-0.000426
00904	14145567	0.054179	0.036712	9.800200	-0.007097	0.001802	-0.001491
00905	14145617	0.037179	0.055458	9.824972	-0.003123	0.000383	-0.003111
00906	14145667	0.057481	0.037559	9.814806	-0.005561	-0.001360	0.000024
00907	14145717	0.061018	0.047209	9.794656	-0.004036	0.000082	-0.000896
00908	14145767	0.042661	0.041643	9.802417	-0.002714	0.001786	-0.001151
00909	14145817	0.069176	0.044579	9.785743	-0.003447	0.003676	-0.002002
00910	14145867	0.064493	0.039544	9.816451	-0.004892	0.001910	-0.001051
00911	14145917	0.040813	0.049876	9.819441	-0.004739	0.000942	-0.002043
00912	14145967	0.052859	0.054024	9.821532	-0.004477	0.002111	0.000750
00913	14146017	0.065905	0.044301	9.818356	-0.003355	0.001641	-0.002556
00914	14146067	0.052418	0.038081	9.814830	-0.002494	0.002051	-0.000218
00915	14146117	0.064942	0.032232	9.807346	-0.006879	-0.000936	-0.000580
00916	14146167	0.060194	0.056469	9.797773	-0.002696	0.000002	-0.003502
00917	14146217	0.047024	0.043870	9.817249	-0.002632	0.002337	-0.000121
00918	14146267	0.060156	0.051667	9.805681	-0.006052	0.002311	-0.000498
00919	14146317	0.045918	0.049083	9.808634	-0.006579	-0.000611	-0.002336
00920	14146367	0.039936	0.043563	9.830466	-0.003560	-0.000679	0.000123
00921	14146417	0.073126	0.019699	9.801070	-0.005162	0.003457	0.000117
00922	14146467	0.045325	0.051439	9.811030	-0.004488	0.002237	-0.001909
00923	14146517	0.039558	0.055780	9.808889	-0.003343	0.005515	-0.002506
00924	14146567	0.046602	0.057757	9.819403	-0.005455	0.004674	-0.000612
00925	14146617	0.043354	0.060085	9.801205	-0.007012	0.002389	0.001431
00926	14146667	0.059520	0.027503	9.794663	-0.006145	0.002850	-0.002322
00927	14146717	0.067732	0.059961	9.803001	-0.002749	0.000848	-0.001442
00928	14146767	0.061628	0.046557	9.803517	-0.005480	0.001249	-0.001534
00929	14146817	0.043020	0.041056	9.824703	-0.005040	0.001718	0.000684
00930	14146867	0.021129	0.061959	9.819056	-0.005145	0.001707	-0.003382
00931	14146917	0.035126	0.042863	9.819468	-0.006730	0.002494	-0.000491
00932	14146967	0.054717	0.042115	9.811223	-0.003171	0.004330	0.001271
00933	14147017	0.070860	0.014312	9.808755	-0.005043	0.000484	-0.001568
00934	14147067	0.051982	0.038480	9.797339	-0.005374	0.001899	-0.002167
00935	14147117	0.061801	0.046401	9.813580	-0.004050	0.003603	-0.002033
00936	14147167	0.053081	0.030513	9.810516	-0.003602	-0.000462	-0.000327
00937	14147217	0.063380	0.040857	9.806387	-0.004262	0.000212	-0.000094
00938	14147267	0.044407	0.052355	9.812956	-0.004054	-0.000172	0.001342
00939	14147317	0.041773	0.058565	9.807457	-0.004169	-0.001889	-0.002316
00940	14147367	0.053604	0.031870	9.799257	-0.005030	-0.002039	-0.002608
00941	14147417	0.038675	0.046154	9.795968	-0.006409	-0.001259	-0.004935
00942	14147467	0.039408	0.061900	9.808188	-0.002079	-0.001433	-0.002672
00943	14147517	0.055481	0.042445	9.813380	-0.001711	0.002216	-0.004515
00944	14147567	0.051930	0.056329	9.794465	-0.002792	-0.001702	-0.000013
00945	14147617	0.044303	0.065781	9.806956	-0.003826	-0.000656	-0.001670
00946	14147667	0.050408	0.056285	9.795179	-0.004076	0.003010	-0.005337
00947	14147717	0.045875	0.052683	9.796641	-0.004682	0.003462	-0.000684
00948	14147767	0.038559	0.042078	9.815131	-0.003711	0.001930	-0.002006
00949	14147817	0.047236	0.069595	9.822281	-0.003324	0.000035	0.001851
00950	14147867	0.045775	0.029234	9.799053	-0.009459	-0.000436	-0.002009
00951	14147917	0.041088	0.047850	9.813930	-0.003002	0.000881	0.000194
00952	14147967	0.067394	0.021316	9.816197	-0.005662	0.000895	-0.001054
00953	14148017	0.055573	0.054252	9.810973	-0.004303	0.002433	-0.001781
00954	14148067	0.048356	0.041412	9.810290	-0.001727	0.001835	-0.001504
00955	14148117	0.061067	0.041739	9.825333	-0.004265	0.002204	-0.003517
00956	14148167	0.042747	0.053099	9.808408	-0.006425	0.000553	-0.003712
00957	14148217	0.058454	0.039502	9.807128	-0.000556	0.000143	-0.001680
00958	14148267	0.052172	0.050131	9.828971	-0.003334	0.001029	-0.003622
00959	14148317	0.040008	0.042582	9.812011	-0.005826	0.001248	0.000013
00960	14148367	0.039377	0.041814	9.805552	-0.002366	-0.000608	-0.006292
00961	14148417	0.045352	0.050029	9.816066	-0.001614	0.001222	-0.002503
00962	14148467	0.043269	0.038351	9.799064	-0.004519	-0.000797	-0.000484
00963	14148517	0.057581	0.045117	9.814803	-0.005490	0.000512	-0.000734
00964	14148567	0.042807	0.039735	9.819431	-0.003127	0.001811	-0.000348
00965	14148617	0.043949	0.049225	9.805761	-0.002002	0.003867	0.002260
00966	14148667	0.059099	0.029528	9.799463	-0.005168	-0.000618	-0.000965
00967	14148717	0.048981	0.044836	9.813886	-0.003800	0.002503	-0.004765
00968	14148767	0.049586	0.046049	9.787280	-0.000819	0.002855	0.001318
00969	14148817	0.049325	0.047588	9.794475	-0.002457	0.000894	0.001155
00970	14148867	0.063817	0.027028	9.815505	-0.002763	-0.001608	-0.000466
00971	14148917	0.046693	0.041199	9.819177	-0.003306	-0.001042	-0.004495
00972	14148967	0.038988	0.049350	9.808905	-0.002611	0.001232	-0.005351
00973	14149017	0.037133	0.054611	9.821141	-0.001451	0.002125	-0.003136
00974	14149067	0.046400	0.054277	9.787538	-0.002884	0.001941	-0.002909
00975	14149117	0.055365	0.041055	9.822248	-0.004914	0.002517	-0.003482
00976	14149167	0.051651	0.041614	9.807883	-0.004819	0.001752	0.001772
00977	14149217	0.048256	0.045154	9.814858	-0.002764	0.000329	-0.001605
00978	14149267	0.044181	0.043313	9.793780	-0.008530	0.000419	-0.002582
00979	14149317	0.065775	0.045253	9.801338	-0.005058	0.000937	-0.001662
00980	14149367	0.080234	0.028471	9.797678	-0.002997	0.001519	-0.001220
00981	14149417	0.047829	0.047272	9.811259	-0.004616	0.000170	-0.000512
00982	14149467	0.046474	0.037874	9.814622	-0.005131	0.000226	-0.000989
00983	14149517	0.039804	0.045558	9.808424	-0.003019	-0.000738	-0.001127
00984	14149567	0.037494	0.051034	9.816818	-0.004788	0.000717	-0.000124
00985	14149617	0.050417	0.045996	9.801178	-0.003979	0.002509	0.000266
00986	14149667	0.047170	0.040611	9.815825	-0.000138	0.000054	-0.003023
00987	14149717	0.053151	0.037070	9.814349	-0.005256	0.001156	-0.003264
00988	14149767	0.055225	0.037811	9.814097	-0.002801	0.003393	-0.003932
00989	14149817	0.057111	0.042263	9.818403	-0.004779	0.000168	-0.001664
00990	14149867	0.056622	0.046331	9.814813	-0.005646	-0.000723	-0.001249
00991	14149917	0.066327	0.033238	9.809728	-0.005361	0.001676	0.000210
00992	14149967	0.036111	0.047801	9.816343	-0.002348	0.002239	-0.003384
00993	14150017	0.041486	0.064604	9.827817	-0.006989	0.003877	0.000131
00994	14150067	0.060588	0.057512	9.808552	-0.008100	0.000943	-0.003440
00995	14150117	0.043285	0.046149	9.809835	-0.008272	0.001526	-0.000812
00996	14150167	0.044547	0.032991	9.822063	-0.007071	0.000063	-0.000183
00997	14150217	0.047431	0.039795	9.807187	-0.000215	0.000602	-0.001860
00998	14150267	0.040613	0.024919	9.825201	-0.003058	0.002323	-0.003509
00999	14150317	0.049711	0.045973	9.792550	-0.001107	0.004917	-0.000779
01000	14150367	0.055279	0.046142	9.795876	-0.003600	0.001710	0.000846
01001	14150417	0.063918	0.030280	9.816451	-0.004630	0.000784	0.000744
01002	14150467	0.046625	0.047890	9.802397	-0.003815	0.002413	-0.000176
01003	14150517	0.061744	0.036384	9.803518	-0.004634	0.002849	-0.001423
01004	14150567	0.058285	0.047372	9.817198	-0.001567	0.000896	-0.003362
01005	14150617	0.042568	0.056461	9.794505	-0.003384	-0.000294	-0.000929
01006	14150667	0.041709	0.057266	9.803133	-0.005394	0.003807	0.000093
01007	14150717	0.039033	0.062621	9.810339	-0.003262	0.002034	-0.001784
01008	14150767	0.057080	0.032783	9.806177	-0.002246	0.001118	-0.001179
01009	14150817	0.055450	0.040937	9.820808	-0.005346	0.000027	-0.002015
01010	14150867	0.050484	0.056619	9.822020	-0.006001	0.001431	-0.004213
01011	14150917	0.062419	0.070969	9.795121	-0.004235	0.001305	-0.001975
01012	14150967	0.043961	0.042583	9.813437	-0.005665	0.004384	-0.000256
01013	14151017	0.041925	0.062207	9.791873	-0.004545	0.003312	0.001495
01014	14151067	0.054901	0.043899	9.817691	-0.004067	0.002052	-0.001107
01015	14151117	0.028638	0.054093	9.817342	-0.002602	0.000469	-0.000060
01016	14151167	0.049129	0.037386	9.813172	-0.008073	0.000307	-0.001011
01017	14151217	0.044573	0.045753	9.799049	-0.003897	0.000633	-0.002653
01018	14151267	0.036565	0.051238	9.801964	-0.005841	0.003536	-0.001927
01019	14151317	0.045010	0.047602	9.800244	-0.005763	0.002318	0.000184
01020	14151367	0.052674	0.045248	9.801162	-0.007928	0.000821	-0.001551
01021	14151417	0.052202	0.053985	9.809799	-0.003640	0.001968	0.000208
01022	14151467	0.064695	0.045627	9.805896	-0.003963	0.002758	-0.004184
01023	14151517	0.039775	0.065559	9.805543	-0.002368	-0.001077	0.000732
01024	14151567	0.054591	0.042044	9.798038	-0.005248	0.002867	-0.004402
01025	14151617	0.044034	0.047912	9.795217	-0.004916	0.002384	-0.004241
01026	14151667	0.054474	0.042771	9.812667	-0.004388	0.001173	-0.000249
01027	14151717	0.058311	0.049140	9.805690	-0.003203	0.001835	-0.004411
01028	14151767	0.047923	0.051410	9.822282	-0.002339	0.000342	0.001475
01029	14151817	0.049759	0.047722	9.812690	-0.003754	-0.001383	0.005026
01030	14151867	0.051771	0.057521	9.810753	-0.004733	0.000236	0.003247
01031	14151917	0.043852	0.048302	9.802896	-0.002933	-0.001676	-0.002283
01032	14151967	0.052949	0.050404	9.811468	-0.006302	0.002582	-0.006580
01033	14152017	0.053436	0.035907	9.810750	-0.004376	0.000260	-0.006212
01034	14152067	0.058695	0.042317	9.798749	-0.004685	-0.000741	-0.003815
01035	14152117	0.043186	0.043191	9.797147	-0.002919	0.000232	-0.000384
01036	14152167	0.041315	0.036210	9.793077	-0.008529	0.002652	-0.000547
01037	14152217	0.043961	0.048162	9.810314	-0.002592	0.002213	0.000105
01038	14152267	0.051405	0.042122	9.809322	-0.003486	0.002293	0.001971
01039	14152317	0.051579	0.053818	9.804769	-0.003053	0.000393	-0.000255
01040	14152367	0.053639	0.036267	9.810276	-0.000837	0.002275	-0.000697
01041	14152417	0.047703	0.039981	9.823958	-0.003076	0.005067	-0.003916
01042	14152467	0.042286	0.040123	9.806977	-0.004531	-0.000505	-0.000574
01043	14152517	0.065317	0.026785	9.797755	-0.006191	-0.000566	-0.001346
01044	14152567	0.052129	0.040244	9.808837	-0.004189	0.002985	-0.001363
01045	14152617	0.052540	0.056340	9.800203	-0.002652	0.000115	0.002664
01046	14152667	0.049793	0.043371	9.804775	-0.003960	0.000764	-0.000248
01047	14152717	0.050015	0.028419	9.806937	-0.001995	0.001246	-0.001246
01048	14152767	0.027898	0.045615	9.812325	-0.000752	-0.001732	-0.002707
01049	14152817	0.047693	0.039283	9.802396	-0.003543	0.000740	-0.001150
01050	14152867	0.044345	0.037688	9.810315	-0.007525	0.002284	-0.001736
01051	14152917	0.039217	0.044703	9.818013	-0.003611	0.000765	-0.002366
01052	14152967	0.047896	0.040292	9.806469	-0.001319	0.000591	0.002437
01053	14153017	0.052129	0.060308	9.816747	-0.003002	0.001582	-0.003579
01054	14153067	0.056045	0.056017	9.806664	-0.003156	-0.000253	0.000256
01055	14153117	0.053163	0.055405	9.812188	-0.002533	0.000141	-0.001826
01056	14153167	0.046213	0.044915	9.822531	-0.004190	-0.001375	-0.002886
01057	14153217	0.049075	0.031020	9.818447	-0.004695	0.002815	-0.002033
01058	14153267	0.039076	0.040381	9.818259	-0.003447	0.000069	0.003083
01059	14153317	0.046313	0.030337	9.811749	-0.005980	0.002824	-0.002667
01060	14153367	0.040750	0.028825	9.797873	-0.006299	0.001885	-0.000427
01061	14153417	0.065969	0.035300	9.815245	-0.004663	0.003786	-0.001482
01062	14153467	0.049360	0.030660	9.807422	-0.007340	0.003681	0.001665
01063	14153517	0.040624	0.051036	9.804342	-0.004049	0.001571	-0.001718
01064	14153567	0.060667	0.035117	9.806648	-0.005325	-0.001387	0.002402
01065	14153617	0.042072	0.034571	9.797384	-0.004473	0.001887	0.000015
01066	14153667	0.047719	0.036605	9.812707	-0.001781	-0.000128	0.002371
01067	14153717	0.054965	0.051726	9.804995	-0.004550	-0.000997	-0.002532
01068	14153767	0.065299	0.033317	9.820751	-0.003747	0.001057	-0.001273
01069	14153817	0.037652	0.047260	9.805557	-0.001796	0.000025	-0.002437
01070	14153867	0.039902	0.055444	9.799791	-0.002484	0.001561	-0.002620
01071	14153917	0.046564	0.037682	9.800485	-0.003129	-0.000189	-0.001222
01072	14153967	0.068726	0.027276	9.816436	-0.005175	0.001036	0.001454
01073	14154017	0.076608	0.025901	9.803690	-0.003593	-0.003979	-0.002235
01074	14154067	0.056573	0.056438	9.812180	-0.001458	-0.001618	-0.003762
01075	14154117	0.052011	0.034516	9.820352	-0.005723	-0.001333	-0.001924
01076	14154167	0.055797	0.032732	9.824402	-0.003203	0.001134	-0.000732
01077	14154217	0.062303	0.033339	9.815026	-0.006162	-0.001673	-0.004489
01078	14154267	0.056691	0.043734	9.801631	-0.004368	0.001464	-0.002364
01079	14154317	0.044667	0.054934	9.817742	-0.005506	0.004551	0.001344
01080	14154367	0.046019	0.039844	9.809111	-0.005673	0.002380	-0.000270
01081	14154417	0.063155	0.025542	9.807354	-0.000717	0.000301	-0.000868
01082	14154467	0.051456	0.051927	9.802610	-0.003716	-0.001141	-0.002696
01083	14154517	0.047985	0.044706	9.790651	-0.004357	-0.000693	0.001121
01084	14154567	0.050726	0.055418	9.809559	-0.003067	0.003973	-0.002093
01085	14154617	0.047919	0.040587	9.805746	-0.007276	0.001282	-0.003925
01086	14154667	0.063583	0.021059	9.815252	-0.003602	0.001442	-0.002715
01087	14154717	0.048569	0.049853	9.809819	-0.005425	-0.003522	-0.000810
01088	14154767	0.047448	0.061403	9.832586	-0.004084	0.001668	-0.001175
01089	14154817	0.047826	0.050572	9.810540	-0.002176	-0.000117	-0.003559
01090	14154867	0.055178	0.026894	9.808586	-0.006364	0.001848	-0.002386
01091	14154917	0.057592	0.049725	9.809054	-0.005741	-0.001359	0.002724
01092	14154967	0.051298	0.040642	9.806929	-0.008894	-0.000428	-0.003318
01093	14155017	0.051604	0.042320	9.798548	-0.003345	-0.002677	-0.000428
01094	14155067	0.046964	0.050542	9.793769	-0.005267	0.000773	0.000588
01095	14155117	0.052147	0.036657	9.799259	-0.001506	-0.003038	-0.000050
01096	14155167	0.066744	0.023551	9.813093	-0.001816	0.006133	0.000704
01097	14155217	0.039987	0.049130	9.809142	-0.002024	-0.000716	0.001691
01098	14155267	0.047433	0.058891	9.807901	-0.005028	0.003260	-0.002605
01099	14155317	0.048395	0.037038	9.800466	-0.002319	0.004030	0.003099
01100	14155367	0.057451	0.041815	9.799950	-0.003947	0.001410	-0.001691
01101	14155417	0.069380	0.047003	9.817622	-0.003507	0.001810	0.001064
01102	14155467	0.053387	0.040263	9.809309	-0.002836	-0.000443	-0.001318
01103	14155517	0.077372	0.028901	9.792175	-0.005358	0.002975	0.003003
01104	14155567	0.056390	0.047211	9.811690	-0.002547	0.000463	-0.002112
01105	14155617	0.052652	0.034283	9.812193	-0.003671	0.002935	-0.000107
01106	14155667	0.050746	0.063137	9.799255	-0.005642	0.003310	-0.003949
01107	14155717	0.039000	0.052368	9.797636	-0.002686	-0.000019	0.000097
01108	14155767	0.048604	0.043757	9.803586	-0.004795	0.000646	-0.003421
01109	14155817	0.052931	0.056740	9.811707	-0.007329	0.000386	0.002002
01110	14155867	0.059232	0.032879	9.817916	-0.002036	-0.001363	-0.000328
01111	14155917	0.041802	0.063779	9.796910	-0.003181	-0.000613	-0.001253
01112	14155967	0.045600	0.041928	9.815582	-0.005166	0.004517	-0.003432
01113	14156017	0.057593	0.022446	9.809292	-0.005968	0.002503	-0.001644
01114	14156067	0.047693	0.048663	9.810301	-0.005449	0.004715	0.001637
01115	14156117	0.043608	0.056234	9.807197	-0.005658	0.003793	-0.004811
01116	14156167	0.057350	0.047145	9.804501	-0.007951	0.002499	-0.001415
01117	14156217	0.052752	0.042264	9.815543	-0.003707	0.004094	0.001208
01118	14156267	0.052255	0.035544	9.802363	-0.004616	0.001202	-0.001783
01119	14156317	0.046760	0.042177	9.805995	0.000148	-0.000881	-0.003189
01120	14156367	0.048331	0.054242	9.793756	-0.000608	0.000652	-0.003914
01121	14156417	0.055047	0.025585	9.803794	-0.005072	0.001222	-0.003352
01122	14156467	0.061415	0.043901	9.808790	-0.004246	0.002464	-0.002868
01123	14156517	0.061212	0.050666	9.819574	-0.002473	0.005667	-0.000390
01124	14156567	0.060355	0.054962	9.808318	-0.005802	-0.000121	-0.006276
01125	14156617	0.055441	0.043262	9.797311	-0.005022	0.005066	-0.002724
01126	14156667	0.062539	0.033818	9.806630	-0.000886	0.000691	-0.000642
01127	14156717	0.056559	0.040474	9.796117	-0.004337	0.001267	-0.003869
01128	14156767	0.059632	0.043530	9.782196	-0.006889	0.002161	-0.003505
01129	14156817	0.051548	0.037479	9.802134	-0.003891	0.001702	0.000042
01130	14156867	0.057052	0.029370	9.809295	-0.004101	0.002113	-0.002132
01131	14156917	0.062973	0.018288	9.799686	-0.000592	0.002336	-0.002847
01132	14156967	0.071085	0.027196	9.808265	-0.003354	0.003772	-0.002192
01133	14157017	0.054665	0.057900	9.802110	-0.005438	-0.000004	-0.000121
01134	14157067	0.037677	0.035308	9.812984	-0.002433	0.001447	0.002988
01135	14157117	0.039912	0.050678	9.809380	-0.006038	-0.000276	-0.001018
01136	14157167	0.048388	0.041065	9.817493	-0.001655	-0.001260	0.000025
01137	14157217	0.051159	0.029004	9.797100	-0.004394	0.002469	0.000434
01138	14157267	0.021563	0.057153	9.797249	-0.003897	0.000761	-0.001945
01139	14157317	0.042125	0.045355	9.789961	-0.003809	0.003956	-0.003981
01140	14157367	0.066406	0.039997	9.823868	-0.001841	0.000343	-0.002178
01141	14157417	0.044395	0.051736	9.795698	-0.004955	-0.002958	0.002269
01142	14157467	0.038375	0.059768	9.808663	-0.003933	0.001222	0.002670
01143	14157517	0.022800	0.053670	9.806833	-0.005890	-0.000750	0.002190
01144	14157567	0.046060	0.037297	9.809595	-0.002945	0.000104	0.000095
01145	14157617	0.042063	0.047791	9.815845	-0.003318	-0.000285	0.000288
01146	14157667	0.056296	0.032471	9.803786	-0.006439	0.003434	0.000796
01147	14157717	0.053150	0.042739	9.805483	-0.002802	0.000494	-0.000928
01148	14157767	0.043320	0.043099	9.812962	-0.003450	0.000706	-0.002111
01149	14157817	0.048136	0.058032	9.807659	-0.002110	0.001025	0.000644
01150	14157867	0.055847	0.033552	9.814816	-0.003126	-0.000320	-0.000165
01151	14157917	0.049907	0.038887	9.832574	-0.003558	0.001325	0.000841
01152	14157967	0.053633	0.041496	9.807396	-0.002176	0.002155	0.000297
01153	14158017	0.049460	0.057735	9.828500	-0.002301	0.001019	0.000259
01154	14158067	0.046388	0.037061	9.794489	-0.003397	0.000991	-0.004128
01155	14158117	0.048749	0.050057	9.809336	0.001114	0.001309	-0.000130
01156	14158167	0.054944	0.045982	9.811222	-0.001275	0.001170	0.002532
01157	14158217	0.064739	0.046885	9.816686	-0.003961	-0.001238	-0.001193
01158	14158267	0.061844	0.041933	9.798252	-0.003000	-0.002319	0.000405
01159	14158317	0.058495	0.031771	9.807373	-0.003280	0.001649	-0.000789
01160	14158367	0.054108	0.048095	9.805478	-0.005796	-0.002013	-0.000487
01161	14158417	0.043494	0.054534	9.796183	-0.004707	0.000238	0.000679
01162	14158467	0.057086	0.043733	9.807616	-0.006974	0.003902	-0.002788
01163	14158517	0.055323	0.038730	9.800677	-0.004017	0.001604	-0.000215
01164	14158567	0.047988	0.050248	9.812932	-0.006115	0.001913	-0.003922
01165	14158617	0.042941	0.054193	9.806971	-0.002452	0.001594	-0.001593
01166	14158667	0.049704	0.035390	9.796386	-0.004208	0.001631	-0.000596
01167	14158717	0.059995	0.041490	9.813834	-0.002313	0.001075	-0.004327
01168	14158767	0.052050	0.032505	9.811965	0.001690	0.001254	-0.000645
01169	14158817	0.062830	0.046052	9.814780	-0.001637	0.000960	-0.003751
01170	14158867	0.054454	0.045727	9.820093	-0.005101	0.000582	-0.000183
01171	14158917	0.037723	0.049033	9.812272	-0.002499	0.002245	0.001039
01172	14158967	0.048323	0.064172	9.803339	-0.005195	0.002518	-0.001776
01173	14159017	0.050871	0.033126	9.802376	-0.006291	0.001724	0.000179
01174	14159067	0.047848	0.038335	9.819640	-0.003966	0.002592	-0.006678
01175	14159117	0.059326	0.036672	9.827745	-0.004508	-0.002348	-0.002863
01176	14159167	0.042071	0.052149	9.797380	-0.003798	0.002799	-0.001680
01177	14159217	0.045554	0.060639	9.811272	-0.006768	0.000552	-0.000946
01178	14159267	0.031063	0.053491	9.806304	-0.005482	0.001679	0.001173
01179	14159317	0.040798	0.056471	9.806494	-0.004949	0.001549	-0.002579
01180	14159367	0.048418	0.052355	9.815324	-0.006398	0.001911	-0.002643
01181	14159417	0.047298	0.048859	9.800954	-0.002083	0.002921	-0.004312
01182	14159467	0.045141	0.054462	9.800722	-0.005075	0.001713	-0.000466
01183	14159517	0.052998	0.056699	9.820329	-0.003369	0.004555	0.000861
01184	14159567	0.052866	0.020652	9.813157	-0.006444	0.002562	0.000535
01185	14159617	0.048364	0.040090	9.810538	-0.005294	0.001682	0.000433
01186	14159667	0.071472	0.034295	9.829116	-0.003124	-0.000517	-0.002311
01187	14159717	0.054797	0.023444	9.804040	-0.003129	0.000748	-0.001178
01188	14159767	0.067675	0.031826	9.825296	-0.005802	0.000605	0.002060
01189	14159817	0.048287	0.049446	9.798791	-0.000171	0.003409	-0.001624
01190	14159867	0.064738	0.022296	9.806386	-0.005621	0.004665	-0.002889
01191	14159917	0.051394	0.051259	9.797813	-0.005025	0.001930	-0.002199
01192	14159967	0.047764	0.040060	9.804556	-0.003053	-0.002682	-0.001557
01193	14160017	0.052122	0.059604	9.825857	-0.005839	0.000432	-0.003011
01194	14160067	0.062090	0.043500	9.820299	-0.004832	0.001000	-0.003364
01195	14160117	0.069995	0.040914	9.811864	-0.002518	0.001915	-0.000768
01196	14160167	0.055783	0.053018	9.788929	-0.008057	-0.000479	-0.005060
01197	14160217	0.074185	0.042151	9.805616	-0.005190	-0.002138	-0.003089
01198	14160267	0.044491	0.045117	9.817267	-0.008720	0.000349	-0.002263
01199	14160317	0.062394	0.038703	9.819809	-0.006565	0.000934	-0.004930
01200	14160367	0.064364	0.055785	9.814775	-0.000568	-0.000410	-0.003348
01201	14160417	0.046022	0.053176	9.816295	-0.000710	0.000242	0.000245
01202	14160467	0.042421	0.048987	9.796669	-0.006320	0.000654	0.000326
01203	14160517	0.048206	0.049778	9.814612	-0.003594	0.001214	-0.003394
01204	14160567	0.060990	0.044717	9.799926	-0.004651	0.000162	-0.002693
01205	14160617	0.046877	0.038580	9.804800	-0.002369	-0.002954	-0.000570
01206	14160667	0.056652	0.048355	9.806178	-0.006631	0.001620	0.001197
01207	14160717	0.065983	0.048704	9.789350	-0.007902	0.002147	-0.000013
01208	14160767	0.042795	0.055436	9.797380	-0.005363	0.000669	-0.001439
01209	14160817	0.037351	0.058709	9.794775	-0.006184	-0.001664	0.000667
01210	14160867	0.065200	0.027257	9.812373	-0.005374	-0.000335	-0.004169
01211	14160917	0.057604	0.039329	9.797065	-0.001882	0.004960	-0.001522
01212	14160967	0.053177	0.050638	9.825371	-0.005121	0.001228	-0.000186
01213	14161017	0.034766	0.060842	9.817317	-0.000960	-0.001028	-0.001168
01214	14161067	0.050362	0.044063	9.822268	-0.001898	0.001476	-0.000161
01215	14161117	0.039762	0.044762	9.811301	-0.004391	0.000302	-0.001541
01216	14161167	0.048815	0.047524	9.803583	-0.006693	-0.000510	0.002437
01217	14161217	0.046841	0.048373	9.811499	-0.003107	0.001899	-0.004130
01218	14161267	0.060388	0.038986	9.793935	-0.003161	0.001770	-0.002818
01219	14161317	0.056211	0.039558	9.815296	0.000542	0.001998	-0.002375
01220	14161367	0.034060	0.057934	9.809414	0.001168	0.000753	0.000116
01221	14161417	0.054605	0.043304	9.798039	-0.003777	0.001416	0.001605
01222	14161467	0.038899	0.051346	9.813221	-0.006072	0.000886	0.000037
01223	14161517	0.052490	0.033496	9.811239	-0.005241	-0.000134	-0.000773
01224	14161567	0.044347	0.048172	9.822292	-0.003194	0.002871	-0.002936
01225	14161617	0.044508	0.033489	9.806250	-0.004514	-0.001892	0.000244
01226	14161667	0.043409	0.058726	9.811757	-0.007378	-0.000168	0.000776
01227	14161717	0.022385	0.059620	9.805865	-0.003339	0.002285	-0.004318
01228	14161767	0.049690	0.042625	9.821553	-0.004171	0.001499	-0.001180
01229	14161817	0.058890	0.059763	9.794662	-0.003280	0.001781	0.002280
01230	14161867	0.046735	0.045887	9.812214	-0.000881	0.005788	-0.001007
01231	14161917	0.057845	0.042794	9.801141	-0.004613	0.002334	0.000232
01232	14161967	0.032130	0.044686	9.808699	-0.007145	0.001152	-0.004184
01233	14162017	0.034129	0.043560	9.802220	-0.006532	0.001397	0.000525
01234	14162067	0.040191	0.049405	9.806735	-0.002929	0.001583	-0.001213
01235	14162117	0.066644	0.030959	9.787200	-0.004428	0.004496	-0.001486
01236	14162167	0.045751	0.038110	9.808631	-0.001646	0.003380	-0.003646
01237	14162217	0.065884	0.030580	9.800621	-0.004993	0.002462	0.002063
01238	14162267	0.073536	0.042564	9.800827	-0.000905	-0.002059	-0.002173
01239	14162317	0.056794	0.046121	9.817690	-0.002138	0.000723	-0.003211
01240	14162367	0.052475	0.034501	9.811480	-0.002576	0.001463	-0.001857
01241	14162417	0.040207	0.050099	9.803144	-0.004294	0.000337	-0.000641
01242	14162467	0.057689	0.047615	9.821756	-0.004079	0.001699	0.000390
01243	14162517	0.052328	0.068769	9.804279	-0.004791	0.002172	0.001422
01244	14162567	0.053265	0.037798	9.814339	-0.003244	0.004584	-0.002159
01245	14162617	0.046822	0.045717	9.810064	-0.008696	0.002135	0.001750
01246	14162667	0.060625	0.054942	9.802080	-0.004255	0.001179	0.000680
01247	14162717	0.024766	0.055278	9.807537	-0.006299	0.003108	-0.000782
01248	14162767	0.043931	0.053351	9.807925	-0.007775	0.001211	-0.000243
01249	14162817	0.038862	0.053872	9.805076	-0.003691	0.002541	-0.000119
01250	14162867	0.038849	0.053008	9.817054	-0.004169	0.001764	0.001483
01251	14162917	0.033387	0.047112	9.821866	-0.006489	0.004173	0.001149
01252	14162967	0.028801	0.050556	9.808243	-0.007353	-0.002174	-0.001191
01253	14163017	0.049646	0.044975	9.810050	-0.003122	0.003815	0.000238
01254	14163067	0.053704	0.035525	9.808123	-0.002646	0.000492	-0.002507
01255	14163117	0.055962	0.034851	9.790371	-0.004333	0.001469	-0.000733
01256	14163167	0.067700	0.044801	9.787187	-0.003725	0.004475	-0.002068
01257	14163217	0.049182	0.051853	9.808372	-0.002052	0.001279	0.000449
01258	14163267	0.039137	0.068782	9.793083	-0.003646	-0.001203	-0.001259
01259	14163317	0.054825	0.043116	9.807635	-0.004902	-0.001905	-0.002545
01260	14163367	0.056256	0.023754	9.799476	-0.005787	0.000855	-0.001600
01261	14163417	0.041344	0.057469	9.820630	-0.002591	0.005501	0.000345
01262	14163467	0.069779	0.027633	9.797971	-0.010245	0.001361	-0.000496
01263	14163517	0.049634	0.054856	9.801419	-0.001255	0.003260	-0.002044
01264	14163567	0.058297	0.048749	9.802333	-0.002726	0.001330	-0.001894
01265	14163617	0.041413	0.028800	9.800510	-0.005566	0.000993	-0.000829
01266	14163667	0.038728	0.039655	9.790218	-0.001948	0.000058	0.001983
01267	14163717	0.050079	0.041133	9.807895	-0.005004	0.000750	0.000995
01268	14163767	0.057644	0.043641	9.801145	-0.006099	0.000859	0.001702
01269	14163817	0.059428	0.036331	9.805693	-0.004720	0.001517	-0.002238
01270	14163867	0.042343	0.041833	9.819193	-0.004201	0.001110	-0.002143
01271	14163917	0.037006	0.055314	9.801240	-0.004876	0.003520	-0.001102
01272	14163967	0.034916	0.047819	9.806045	-0.005514	0.002246	-0.004187
01273	14164017	0.058735	0.042630	9.816952	-0.002357	0.002690	-0.003743
01274	14164067	0.051045	0.033676	9.812925	-0.006770	0.000417	-0.003234
01275	14164117	0.042814	0.042299	9.819442	-0.002979	-0.000099	-0.003181
01276	14164167	0.036689	0.054527	9.794779	-0.003349	-0.001488	-0.001100
01277	14164217	0.055406	0.049043	9.808825	-0.004280	0.000717	-0.004106
01278	14164267	0.049136	0.060950	9.799983	-0.004032	0.001819	-0.003582
01279	14164317	0.036661	0.058619	9.782790	-0.008000	0.002241	0.000120
01280	14164367	0.060038	0.037938	9.807845	-0.005208	0.002868	-0.002488
01281	14164417	0.041492	0.051937	9.796197	-0.003059	-0.002582	-0.001878
01282	14164467	0.059897	0.038623	9.797061	-0.004888	-0.001024	0.003069
01283	14164517	0.020701	0.058838	9.818109	-0.006350	0.000658	0.001031
01284	14164567	0.043830	0.047153	9.811275	-0.005589	-0.000138	0.000226
01285	14164617	0.045316	0.027696	9.813188	-0.004423	0.004169	-0.004659
01286	14164667	0.027013	0.039976	9.804418	-0.005754	-0.000979	0.000255
01287	14164717	0.067778	0.055347	9.802769	-0.008338	-0.000379	-0.001600
01288	14164767	0.038454	0.055522	9.820650	-0.005165	-0.001818	-0.004044
01289	14164817	0.030412	0.049960	9.805586	-0.003507	0.001936	0.001129
01290	14164867	0.067690	0.030869	9.791512	-0.005833	0.000077	-0.003238
01291	14164917	0.045727	0.039580	9.810792	-0.006178	0.000746	-0.006307
01292	14164967	0.031192	0.048731	9.801517	-0.008536	-0.001190	-0.000700
01293	14165017	0.056618	0.043193	9.828225	-0.001186	0.000197	-0.000971
01294	14165067	0.037793	0.034347	9.805328	-0.007013	-0.001238	-0.004842
01295	14165117	0.053982	0.036575	9.815304	-0.002431	0.005946	-0.004879
01296	14165167	0.048485	0.037903	9.800463	-0.005822	0.001117	0.000072
01297	14165217	0.035035	0.056425	9.818507	-0.005540	0.000314	-0.001151
01298	14165267	0.036475	0.060073	9.816109	-0.003796	0.000402	-0.004200
01299	14165317	0.067453	0.053656	9.818110	-0.009067	0.000115	-0.005023
01300	14165367	0.050130	0.039529	9.790875	-0.004145	0.000633	0.000320
01301	14165417	0.054717	0.040568	9.789413	-0.002714	0.000486	-0.004394
01302	14165467	0.045805	0.048619	9.816059	-0.011092	0.001993	0.000761
01303	14165517	0.049702	0.050454	9.791832	-0.002822	0.004297	-0.002131
01304	14165567	0.056141	0.037011	9.815048	-0.005772	0.004966	0.001406
01305	14165617	0.059306	0.044563	9.810961	-0.003967	-0.001018	-0.001004
01306	14165667	0.046052	0.040490	9.805518	-0.001137	0.001483	-0.002988
01307	14165717	0.047984	0.055710	9.814376	-0.002578	-0.000505	-0.001005
01308	14165767	0.046674	0.054319	9.815092	-0.003575	0.005061	0.000089
01309	14165817	0.064031	0.039512	9.803746	-0.002071	0.005029	0.001137
01310	14165867	0.043430	0.048313	9.801701	-0.002083	-0.002179	-0.002939
01311	14165917	0.055730	0.038210	9.808822	-0.002857	0.002428	-0.000925
01312	14165967	0.035351	0.069504	9.787591	-0.004794	-0.000698	0.004230
01313	14166017	0.048193	0.060727	9.799028	-0.005607	-0.000757	-0.001609
01314	14166067	0.059050	0.029296	9.798984	-0.003827	0.000697	-0.000673
01315	14166117	0.054600	0.030649	9.812419	-0.005849	0.002020	0.000203
01316	14166167	0.046835	0.035945	9.804073	-0.003959	0.001726	-0.002431
01317	14166217	0.057194	0.036682	9.812404	-0.003198	0.002194	-0.000411
01318	14166267	0.040860	0.051145	9.812729	-0.005856	-0.000016	-0.000736
01319	14166317	0.049456	0.047495	9.811971	-0.002306	0.000206	-0.000522
01320	14166367	0.058301	0.036295	9.803780	-0.005957	-0.001021	-0.001672
01321	14166417	0.042365	0.050506	9.802193	0.000514	-0.001360	-0.003450
01322	14166467	0.074263	0.047061	9.812565	-0.003977	0.001472	0.000159
01323	14166517	0.055986	0.037431	9.810255	-0.002748	0.002778	-0.002524
01324	14166567	0.072574	0.035346	9.804911	-0.002377	-0.000991	-0.003095
01325	14166617	0.043751	0.041928	9.814878	-0.005122	0.001257	-0.000637
01326	14166667	0.045777	0.037006	9.808389	-0.006712	0.003104	0.000759
01327	14166717	0.060243	0.045794	9.813590	-0.007450	-0.000941	0.001892
01328	14166767	0.053021	0.042015	9.801412	-0.003479	-0.002428	-0.001686
01329	14166817	0.053386	0.044249	9.803798	-0.006778	0.000197	0.002252
01330	14166867	0.053048	0.051690	9.805958	-0.004605	0.001070	0.000039
01331	14166917	0.065702	0.048870	9.812368	-0.003795	-0.000496	-0.002061
01332	14166967	0.042592	0.041872	9.810803	-0.006778	0.002167	-0.000402
01333	14167017	0.045574	0.048103	9.812703	-0.006074	0.004146	0.000858
01334	14167067	0.050164	0.044928	9.805488	-0.007617	0.004344	-0.001188
01335	14167117	0.050363	0.041421	9.785845	-0.005089	0.003358	0.001398
01336	14167167	0.054765	0.044771	9.805708	-0.005260	-0.000450	0.000959
01337	14167217	0.044002	0.049840	9.807442	-0.005256	0.001154	-0.003098
01338	14167267	0.058994	0.036392	9.801141	-0.003172	-0.001009	-0.002155
01339	14167317	0.051286	0.028572	9.818916	-0.007497	0.002472	-0.001584
01340	14167367	0.063505	0.043739	9.823168	-0.003152	0.000481	-0.001480
01341	14167417	0.057780	0.041337	9.818392	-0.004293	0.003438	0.000975
01342	14167467	0.050837	0.053947	9.810283	-0.004198	0.000405	0.000126
01343	14167517	0.069889	0.029346	9.806358	-0.003497	0.000382	-0.000710
01344	14167567	0.063168	0.024348	9.799206	-0.004168	0.000270	-0.001284
01345	14167617	0.056894	0.035799	9.823916	-0.004151	0.000884	-0.001737
01346	14167667	0.058974	0.047915	9.802087	-0.006614	0.004911	-0.001606
01347	14167717	0.045830	0.045321	9.796179	-0.002339	-0.000858	-0.000237
01348	14167767	0.059474	0.046529	9.779084	-0.001793	0.001317	0.000863
01349	14167817	0.044407	0.058602	9.793536	-0.004627	0.001814	-0.000250
01350	14167867	0.056763	0.037636	9.813613	-0.002518	0.000688	-0.002347
01351	14167917	0.054858	0.039555	9.803555	-0.005730	0.001086	-0.000920
01352	14167967	0.058300	0.045982	9.808092	-0.004522	0.000196	-0.004110
01353	14168017	0.054354	0.039824	9.804990	-0.005587	0.002699	-0.001939
01354	14168067	0.047194	0.028840	9.807912	-0.001407	-0.001003	-0.000559
01355	14168117	0.038420	0.054504	9.802674	-0.008363	0.003590	0.000029
01356	14168167	0.039315	0.055123	9.818725	-0.002565	0.001372	0.000353
01357	14168217	0.029850	0.036384	9.805123	-0.006262	-0.000116	-0.000478
01358	14168267	0.062597	0.028424	9.805923	0.000065	0.003122	-0.001378
01359	14168317	0.043265	0.028988	9.806730	-0.003149	0.003453	-0.002997
01360	14168367	0.049479	0.044774	9.809810	-0.001086	0.001908	-0.001862
01361	14168417	0.063794	0.034504	9.800158	-0.004906	-0.001707	-0.000009
01362	14168467	0.048413	0.033282	9.809581	-0.004353	0.001947	-0.002334
01363	14168517	0.034828	0.064720	9.807248	-0.003636	-0.002525	-0.001299
01364	14168567	0.067850	0.026965	9.809727	-0.001498	0.000001	0.000662
01365	14168617	0.037191	0.052177	9.820421	-0.004715	0.000523	0.000579
01366	14168667	0.048185	0.049042	9.817245	-0.005121	0.002128	-0.001494
01367	14168717	0.044870	0.044631	9.810312	-0.005469	0.004388	0.001499
01368	14168767	0.028596	0.066528	9.797690	-0.002812	0.000175	0.001629
01369	14168817	0.034040	0.062216	9.808924	-0.005712	0.001736	0.000877
01370	14168867	0.055231	0.030451	9.783658	-0.005054	0.004131	-0.000396
01371	14168917	0.046224	0.034092	9.818698	-0.003851	0.001176	-0.004391
01372	14168967	0.049764	0.036364	9.813402	-0.003894	0.002794	-0.001561
01373	14169017	0.067363	0.039399	9.813558	-0.003254	0.002938	-0.000600
01374	14169067	0.073358	0.037895	9.819041	-0.006302	0.001977	-0.001460
01375	14169117	0.053849	0.040946	9.814342	-0.002709	0.000621	-0.000583
01376	14169167	0.050365	0.043551	9.816752	-0.008692	0.001840	-0.000815
01377	14169217	0.048475	0.054721	9.788244	-0.004874	0.003423	-0.002194
01378	14169267	0.040873	0.056804	9.802426	-0.003590	0.000185	-0.000228
01379	14169317	0.056862	0.038122	9.803550	-0.007188	-0.001428	-0.001186
01380	14169367	0.061907	0.038414	9.810944	-0.005097	0.002319	-0.002843
01381	14169417	0.051828	0.029148	9.808365	-0.002027	0.001609	0.002341
01382	14169467	0.056958	0.011338	9.798041	-0.003161	-0.001456	-0.002000
01383	14169517	0.040371	0.059030	9.797149	-0.002791	0.001165	-0.003202
01384	14169567	0.054872	0.041532	9.826560	-0.008713	0.000355	-0.000502
01385	14169617	0.058882	0.038043	9.817195	-0.003795	-0.001499	-0.002066
01386	14169667	0.052183	0.044477	9.814114	-0.002436	-0.001992	-0.002132
01387	14169717	0.040644	0.050534	9.805308	-0.004456	0.001071	-0.004161
01388	14169767	0.043490	0.050137	9.805282	-0.003810	0.004412	-0.000554
01389	14169817	0.044781	0.039333	9.814390	-0.002164	-0.000204	0.000566
01390	14169867	0.036571	0.057630	9.801004	-0.006590	0.000009	-0.000858
01391	14169917	0.043550	0.044903	9.808637	-0.003101	0.001131	-0.000820
01392	14169967	0.055500	0.020399	9.789896	-0.002851	-0.000932	-0.003139
01393	14170017	0.066478	0.032750	9.810924	-0.004664	0.003172	-0.001161
01394	14170067	0.059809	0.044131	9.807840	-0.003313	0.000840	-0.000052
01395	14170117	0.055861	0.024819	9.825850	-0.002535	0.000661	0.000715
01396	14170167	0.055871	0.047905	9.818889	-0.005768	0.000340	-0.003862
01397	14170217	0.065725	0.051776	9.806849	-0.005589	-0.000879	-0.000183
01398	14170267	0.047260	0.042465	9.807189	-0.007573	-0.002176	-0.000472
01399	14170317	0.042782	0.046578	9.803127	-0.005390	0.003802	-0.001951
01400	14170367	0.046084	0.032650	9.815349	-0.005678	0.001632	-0.002760
01401	14170417	0.052928	0.034448	9.811469	-0.004987	0.003230	-0.000835
01402	14170467	0.039613	0.040315	9.803865	-0.006352	0.000785	-0.002158
01403	14170517	0.067726	0.034395	9.813311	-0.005557	0.000926	-0.001137
01404	14170567	0.051152	0.047009	9.808598	-0.006800	0.002006	-0.000133
01405	14170617	0.048888	0.034161	9.813650	-0.004582	0.001592	-0.000203
01406	14170667	0.080331	0.029542	9.781861	-0.004029	0.000017	-0.002495
01407	14170717	0.040172	0.054749	9.795232	-0.004765	0.001035	-0.002289
01408	14170767	0.066919	0.038494	9.813077	-0.001510	0.003486	-0.001711
01409	14170817	0.052813	0.034192	9.794219	-0.007587	0.001442	-0.001513
01410	14170867	0.050224	0.045910	9.806689	-0.005085	0.003821	0.002600
01411	14170917	0.056275	0.045966	9.822960	-0.004867	0.002359	-0.001548
01412	14170967	0.027764	0.072269	9.805359	-0.003339	0.001740	-0.001583
01413	14171017	0.053965	0.047470	9.815539	-0.004159	0.003210	-0.003015
01414	14171067	0.057455	0.051069	9.821753	-0.003074	-0.000639	0.000643
01415	14171117	0.060367	0.039042	9.791539	-0.001238	0.003808	-0.003345
01416	14171167	0.068414	0.035930	9.809956	-0.003043	0.000326	-0.000442
01417	14171217	0.058260	0.032128	9.813369	-0.004859	-0.000803	-0.000022
01418	14171267	0.058551	0.043536	9.814552	-0.002787	0.001428	-0.000017
01419	14171317	0.043506	0.063738	9.822544	-0.000506	-0.000084	-0.003430
01420	14171367	0.062712	0.032725	9.815736	-0.003325	0.001494	0.001809
01421	14171417	0.048382	0.040387	9.815332	-0.001999	-0.000564	-0.003269
01422	14171467	0.058834	0.043039	9.798737	-0.004154	0.002148	-0.000684
01423	14171517	0.043058	0.052611	9.798814	-0.003881	0.002503	-0.002571
01424	14171567	0.069448	0.019788	9.825296	-0.004138	0.001501	-0.001814
01425	14171617	0.055726	0.024961	9.812657	-0.007155	0.000803	-0.001036
01426	14171667	0.060107	0.041438	9.792502	-0.006025	0.001831	0.001341
01427	14171717	0.046146	0.031792	9.793530	-0.007623	0.002473	-0.001409
01428	14171767	0.044664	0.051824	9.807671	-0.003026	0.001843	-0.002449
01429	14171817	0.043437	0.053348	9.813915	-0.003161	0.000270	0.002062
01430	14171867	0.054974	0.043118	9.795160	-0.002963	0.005138	-0.000448
01431	14171917	0.052107	0.052309	9.811482	-0.005026	-0.001808	-0.001309
01432	14171967	0.066488	0.037484	9.809245	-0.005967	0.000855	-0.001329
01433	14172017	0.053762	0.040825	9.804517	-0.002087	-0.002755	-0.001481
01434	14172067	0.044054	0.046584	9.835003	-0.004293	0.001337	-0.003024
01435	14172117	0.063340	0.033855	9.817416	-0.004256	0.002270	-0.003537
01436	14172167	0.064149	0.036572	9.814299	-0.000687	0.000756	-0.002141
01437	14172217	0.055077	0.048627	9.828238	-0.006930	-0.000323	-0.002325
01438	14172267	0.064896	0.044496	9.809258	-0.002383	0.003920	-0.001002
01439	14172317	0.035548	0.037028	9.818271	-0.003044	-0.000806	-0.001179
01440	14172367	0.057404	0.049287	9.827505	-0.002376	0.002696	-0.001458
01441	14172417	0.023298	0.043513	9.804188	-0.004341	0.003179	-0.000417
01442	14172467	0.053044	0.038997	9.812433	-0.005087	0.002519	0.001596
01443	14172517	0.040860	0.039870	9.800741	-0.006459	0.007501	-0.000679
01444	14172567	0.056293	0.049480	9.789404	0.000556	0.000908	-0.001087
01445	14172617	0.049067	0.034401	9.796392	-0.003862	0.007353	-0.000496
01446	14172667	0.059607	0.049412	9.820065	-0.004095	0.002772	0.003038
01447	14172717	0.068696	0.032084	9.816429	-0.002647	0.000179	0.001288
01448	14172767	0.044673	0.037394	9.813913	-0.006294	0.005277	-0.000276
01449	14172817	0.074357	0.040695	9.796511	-0.002495	0.002106	-0.003222
01450	14172867	0.062595	0.037282	9.822449	-0.005131	0.002808	-0.001188
01451	14172917	0.031345	0.047516	9.813021	-0.002702	0.001555	-0.003959
01452	14172967	0.064520	0.051174	9.795114	-0.006719	0.002266	-0.001316
01453	14173017	0.046543	0.056114	9.805031	-0.004496	0.000688	-0.002423
01454	14173067	0.041035	0.034658	9.810099	-0.001179	0.001203	-0.000824
01455	14173117	0.058352	0.040256	9.810962	-0.003777	0.003248	-0.003374
01456	14173167	0.067270	0.029788	9.820743	-0.003856	0.001027	0.001458
01457	14173217	0.059635	0.034829	9.810004	-0.004324	-0.000665	-0.001499
01458	14173267	0.043803	0.050049	9.810077	-0.004013	-0.000664	-0.003037
01459	14173317	0.049536	0.043519	9.811974	-0.003060	-0.000197	-0.003105
01460	14173367	0.046618	0.048250	9.810058	-0.001735	0.001482	-0.001209
01461	14173417	0.067124	0.034401	9.796308	-0.004569	0.000274	0.002287
01462	14173467	0.038547	0.042225	9.818254	-0.007338	0.000640	-0.000684
01463	14173517	0.052306	0.031801	9.784874	-0.004694	0.003105	-0.000259
01464	14173567	0.041519	0.057205	9.808887	-0.001999	0.001735	-0.001297
01465	14173617	0.050094	0.033871	9.803332	-0.003973	0.003638	-0.001542
01466	14173667	0.064087	0.024486	9.797281	-0.002245	0.001146	-0.003769
01467	14173717	0.048046	0.034308	9.800477	-0.007760	-0.000308	-0.002774
01468	14173767	0.044456	0.050442	9.811519	-0.007107	0.000349	-0.002097
01469	14173817	0.054014	0.040547	9.820573	-0.004802	0.002589	-0.000164
01470	14173867	0.047168	0.047146	9.818208	-0.003938	0.004606	-0.000734
01471	14173917	0.042861	0.043161	9.807693	-0.004731	0.001941	-0.002573
01472	14173967	0.058241	0.055857	9.799938	-0.003166	0.002000	-0.004054
01473	14174017	0.055725	0.027796	9.800923	-0.004062	0.000949	-0.003515
01474	14174067	0.040817	0.041380	9.802670	-0.003417	-0.000039	-0.001078
01475	14174117	0.063195	0.042477	9.812870	-0.002990	-0.002581	-0.002731
01476	14174167	0.056152	0.046261	9.806659	-0.003560	0.002543	-0.001486
01477	14174217	0.073109	0.028094	9.805621	-0.007434	0.002402	-0.005386
01478	14174267	0.044082	0.034002	9.813677	-0.007968	0.002336	-0.002464
01479	14174317	0.058796	0.048443	9.806655	-0.004953	-0.000363	-0.005823
01480	14174367	0.050337	0.054376	9.799979	-0.003721	0.002606	-0.000843
01481	14174417	0.043759	0.041125	9.815821	-0.005932	0.003730	-0.001021
01482	14174467	0.052206	0.049511	9.804762	-0.004748	0.004652	-0.002719
01483	14174517	0.051672	0.038673	9.812673	-0.006086	0.002434	-0.001220
01484	14174567	0.048120	0.027213	9.801678	-0.003737	0.001060	-0.000724
01485	14174617	0.034408	0.051907	9.804608	-0.006898	0.003102	0.000773
01486	14174667	0.074208	0.035468	9.805615	-0.007683	0.000472	-0.000460
01487	14174717	0.033321	0.064932	9.808446	-0.004137	0.001531	-0.001901
01488	14174767	0.036063	0.047044	9.819230	0.000160	0.003291	-0.001041
01489	14174817	0.065715	0.049740	9.818114	-0.002851	0.003725	0.001147
01490	14174867	0.053213	0.048434	9.833522	-0.003155	-0.002156	0.000737
01491	14174917	0.051109	0.043038	9.824903	-0.005450	0.000769	-0.001200
01492	14174967	0.051602	0.021702	9.808859	-0.004196	-0.003932	-0.003536
01493	14175017	0.061972	0.033837	9.799451	-0.004528	-0.003314	0.000121
01494	14175067	0.068059	0.032512	9.806848	-0.000209	0.000766	-0.000641
01495	14175117	0.058785	0.043168	9.815994	-0.007693	0.000701	0.000183
01496	14175167	0.042060	0.033427	9.798828	-0.001531	0.003165	-0.002284
01497	14175217	0.057186	0.046104	9.801870	-0.002550	0.000113	0.000585
01498	14175267	0.056025	0.055711	9.807856	-0.004439	0.003538	0.002787
01499	14175317	0.052963	0.054295	9.811468	-0.006800	-0.000126	-0.000434
01500	14175367	0.056644	0.034999	9.809301	-0.006126	-0.001501	-0.001305
01501	14175417	0.058518	0.024177	9.807367	-0.004299	0.003529	-0.001863
01502	14175467	0.049105	0.027668	9.820121	-0.005414	0.003415	-0.002790
01503	14175517	0.045909	0.051418	9.799523	-0.005274	-0.000037	-0.002357
01504	14175567	0.051655	0.048401	9.828245	-0.006458	0.003335	0.000226
01505	14175617	0.064500	0.059414	9.804215	-0.004551	0.004757	-0.000861
01506	14175667	0.043242	0.034843	9.801936	-0.002083	0.001343	-0.000626
01507	14175717	0.038695	0.058193	9.800995	-0.005110	0.001134	-0.000295
01508	14175767	0.067196	0.043242	9.798702	-0.000598	0.000081	-0.000961
01509	14175817	0.056865	0.036161	9.815286	-0.003306	0.003712	-0.001576
01510	14175867	0.029299	0.045251	9.806800	-0.002854	0.000555	-0.001685
01511	14175917	0.049243	0.057228	9.802866	-0.002173	-0.001854	-0.000164
01512	14175967	0.050940	0.033033	9.798786	-0.002130	0.000567	-0.003806
01513	14176017	0.049027	0.045401	9.808857	-0.003809	-0.000519	0.001707
01514	14176067	0.050325	0.035721	9.804293	-0.007018	0.004545	-0.004668
01515	14176117	0.060612	0.031947	9.805444	0.000237	0.001907	0.000139
01516	14176167	0.057026	0.051920	9.806173	-0.005265	0.002638	-0.004206
01517	14176217	0.050658	0.055752	9.791825	-0.000462	0.002431	-0.004985
01518	14176267	0.046613	0.049696	9.811276	0.000309	-0.000123	0.001761
01519	14176317	0.065913	0.040114	9.811403	-0.004626	0.004981	-0.001950
01520	14176367	0.050533	0.047290	9.793512	-0.003728	0.000570	-0.003225
01521	14176417	0.038842	0.048702	9.820886	-0.002328	0.003182	-0.000585
01522	14176467	0.045796	0.039613	9.813914	-0.004429	-0.003147	0.002077
01523	14176517	0.042660	0.028279	9.802665	-0.007360	-0.000783	-0.000787
01524	14176567	0.056497	0.040096	9.804736	-0.004202	0.001595	-0.001713
01525	14176617	0.049942	0.044834	9.817715	-0.003413	0.002130	0.000083
01526	14176667	0.049025	0.058999	9.819392	-0.005447	0.001873	0.001884
01527	14176717	0.037993	0.067918	9.812016	-0.008558	0.001647	-0.003303
01528	14176767	0.046195	0.053485	9.805513	-0.003811	-0.002047	-0.004104
01529	14176817	0.065183	0.056030	9.791999	-0.005552	0.000966	0.000948
01530	14176867	0.060705	0.045035	9.811436	-0.003636	-0.000036	0.000294
01531	14176917	0.041033	0.059604	9.792347	-0.002079	0.003707	0.001018
01532	14176967	0.039955	0.050365	9.799792	-0.004993	0.002423	-0.000874
01533	14177017	0.054715	0.030586	9.814349	-0.006501	-0.001676	-0.003202
01534	14177067	0.059252	0.030237	9.800900	-0.003669	0.001832	-0.002259
01535	14177117	0.073415	0.034477	9.814484	-0.004085	0.001051	0.000944
01536	14177167	0.042516	0.058762	9.816080	-0.002080	-0.002920	-0.002383
01537	14177217	0.044789	0.043129	9.819424	-0.002079	-0.000916	-0.001861
01538	14177267	0.053590	0.027989	9.808601	-0.008652	-0.001351	-0.000756
01539	14177317	0.043739	0.042490	9.797624	-0.000523	-0.002697	-0.002032
01540	14177367	0.039190	0.051249	9.802191	-0.008003	0.002664	0.000931
01541	14177417	0.074888	0.040156	9.802979	-0.002190	-0.000469	-0.002466
01542	14177467	0.032898	0.064499	9.801982	-0.005034	0.001483	-0.002315
01543	14177517	0.048848	0.039022	9.809101	-0.001802	0.002477	-0.003187
01544	14177567	0.038794	0.052212	9.790692	-0.002769	0.002849	-0.001577
01545	14177617	0.049124	0.037258	9.809095	-0.007113	0.000811	0.000536
01546	14177667	0.052629	0.033759	9.810516	-0.005556	0.005059	-0.002171
01547	14177717	0.067545	0.046754	9.794375	-0.005420	0.006072	0.000399
01548	14177767	0.043634	0.051002	9.823257	-0.006615	0.001137	-0.000776
01549	14177817	0.047109	0.049672	9.794009	-0.001404	0.001967	-0.003033
01550	14177867	0.053917	0.056847	9.801638	-0.009374	0.001178	-0.002117
01551	14177917	0.039632	0.057369	9.810094	-0.003447	0.001764	-0.004917
01552	14177967	0.038115	0.045192	9.812267	-0.004349	0.001010	-0.003315
01553	14178017	0.064954	0.029825	9.796797	-0.003338	0.003386	-0.004011
01554	14178067	0.060972	0.029307	9.796818	-0.007265	0.001283	-0.001481
01555	14178117	0.044475	0.047052	9.804080	-0.003961	0.001854	-0.003537
01556	14178167	0.051578	0.042823	9.808120	-0.004520	0.005726	-0.001274
01557	14178217	0.054688	0.044534	9.822966	-0.005248	0.001384	-0.002162
01558	14178267	0.057524	0.046503	9.810014	-0.001972	0.002927	-0.001706
01559	14178317	0.066249	0.046980	9.794860	-0.007027	0.001871	-0.001443
01560	14178367	0.035626	0.052537	9.810595	-0.006110	0.001242	-0.001895
01561	14178417	0.041173	0.065624	9.797145	-0.005012	0.002138	-0.000232
01562	14178467	0.048079	0.044680	9.809337	-0.002486	0.002020	-0.000846
01563	14178517	0.043731	0.063006	9.803357	-0.004099	0.004470	-0.001409
01564	14178567	0.065202	0.025698	9.809020	-0.004073	0.000434	-0.001527
01565	14178617	0.040382	0.046748	9.806974	-0.003964	0.003085	-0.002471
01566	14178667	0.065289	0.038122	9.805183	-0.002775	0.003306	0.002044
01567	14178717	0.058170	0.039565	9.808097	-0.003889	-0.000204	-0.000855
01568	14178767	0.039017	0.052957	9.803638	-0.003973	-0.000624	-0.000539
01569	14178817	0.046007	0.051202	9.814622	-0.002880	0.003564	0.001532
01570	14178867	0.047937	0.032219	9.801190	-0.004710	0.004756	-0.001372
01571	14178917	0.060815	0.039970	9.802089	-0.002727	0.002628	-0.000238
01572	14178967	0.054183	0.043376	9.816257	-0.007340	0.002803	0.000609
01573	14179017	0.039363	0.051662	9.794051	-0.004601	-0.002420	-0.005512
01574	14179067	0.034956	0.062651	9.818743	-0.002621	0.001109	-0.002291
01575	14179117	0.045128	0.031495	9.811036	-0.006863	0.000575	-0.003986
01576	14179167	0.051823	0.032596	9.810762	-0.004673	0.001201	-0.001165
01577	14179217	0.030500	0.040256	9.817095	-0.006030	-0.000274	-0.001365
01578	14179267	0.076018	0.029722	9.820704	-0.004225	0.002702	0.001562
01579	14179317	0.047240	0.033834	9.819410	-0.004460	0.001325	-0.005813
01580	14179367	0.052818	0.046288	9.817458	-0.003169	0.000229	-0.001977
01581	14179417	0.051284	0.044578	9.819626	-0.003657	0.003707	-0.000294
01582	14179467	0.052686	0.025139	9.795658	-0.006798	0.000482	-0.003345
01583	14179517	0.053046	0.046930	9.802602	-0.005881	0.000921	-0.002477
01584	14179567	0.055365	0.022421	9.826079	-0.003453	0.002125	-0.001457
01585	14179617	0.058615	0.034043	9.812401	-0.004970	0.004715	-0.000478
01586	14179667	0.063543	0.042580	9.821728	-0.003175	0.000324	-0.000950
01587	14179717	0.055517	0.032179	9.794928	-0.004631	-0.000694	0.002797
01588	14179767	0.049492	0.049723	9.804049	-0.005499	0.002022	-0.003370
01589	14179817	0.057145	0.047841	9.796834	-0.002185	0.000369	-0.002811
01590	14179867	0.065008	0.044361	9.809731	-0.005953	0.001146	-0.002128
01591	14179917	0.070030	0.033500	9.814502	-0.002448	0.003729	-0.000080
01592	14179967	0.047584	0.048907	9.798080	-0.002425	0.001056	0.002444
01593	14180017	0.044807	0.042560	9.804330	-0.004087	-0.001241	0.000254
01594	14180067	0.053463	0.058436	9.810506	-0.005437	-0.001270	-0.002404
01595	14180117	0.057120	0.045175	9.803782	-0.001805	0.001581	0.001927
01596	14180167	0.035119	0.061794	9.799337	-0.001762	0.000696	-0.004351
01597	14180217	0.069347	0.039798	9.806833	-0.001941	0.001503	-0.001950
01598	14180267	0.029623	0.059648	9.806070	-0.005520	-0.000427	0.000107
01599	14180317	0.050176	0.047716	9.813396	-0.004058	0.000990	-0.000053
01600	14180367	0.054073	0.042668	9.815784	-0.006631	0.000396	0.000818
01601	14180417	0.049325	0.047539	9.796152	-0.003793	-0.001330	0.001567
01602	14180467	0.039561	0.044546	9.809381	-0.003872	-0.000914	0.001572
01603	14180517	0.060855	0.029480	9.801615	-0.007322	0.003962	-0.001536
01604	14180567	0.052231	0.036051	9.819391	-0.001831	-0.000915	-0.000037
01605	14180617	0.045696	0.047849	9.805286	-0.001504	0.000032	-0.000162
01606	14180667	0.062059	0.036204	9.830360	-0.004323	0.002173	-0.002549
01607	14180717	0.057186	0.046893	9.795151	-0.004666	0.000550	-0.003997
01608	14180767	0.054828	0.042014	9.816022	-0.007357	-0.001568	-0.004800
01609	14180817	0.029557	0.060934	9.810869	-0.005653	-0.000171	0.000044
01610	14180867	0.056341	0.033797	9.797792	-0.005379	0.003125	-0.001065
01611	14180917	0.055288	0.048777	9.804757	-0.006841	-0.002425	-0.002662
01612	14180967	0.062816	0.034754	9.808794	-0.002043	0.000156	0.002599
01613	14181017	0.063329	0.017098	9.818136	0.000160	0.002190	-0.000381
01614	14181067	0.055994	0.049614	9.799955	-0.003731	-0.001491	0.000443
01615	14181117	0.061804	0.042294	9.806880	-0.003158	-0.002554	-0.001967
01616	14181167	0.048843	0.047259	9.819640	0.000269	0.003741	-0.000562
01617	14181217	0.045680	0.047707	9.800480	-0.001372	0.002972	-0.000816
01618	14181267	0.061696	0.027770	9.806638	-0.005697	0.000090	0.000231
01619	14181317	0.046965	0.051845	9.806232	-0.004179	0.003925	0.000031
01620	14181367	0.038073	0.066505	9.803871	-0.003483	0.001964	-0.001744
01621	14181417	0.056117	0.034574	9.793474	-0.005923	0.003276	-0.000550
01622	14181467	0.054676	0.021281	9.827772	-0.002085	-0.000884	-0.000581
01623	14181517	0.045222	0.037331	9.822286	-0.003193	0.001939	-0.000114
01624	14181567	0.052761	0.037170	9.821314	-0.005642	-0.003591	0.001241
01625	14181617	0.054107	0.042546	9.802364	-0.003366	-0.000039	-0.003427
01626	14181667	0.049449	0.023764	9.796876	-0.004854	-0.001252	0.000642
01627	14181717	0.042164	0.038968	9.811288	-0.001490	0.001544	-0.002561
01628	14181767	0.044126	0.043337	9.804571	-0.000628	-0.000639	-0.002253
01629	14181817	0.047418	0.042288	9.804071	-0.006691	0.001623	0.002911
01630	14181867	0.053882	0.028169	9.828012	-0.002125	0.003470	-0.001647
01631	14181917	0.043059	0.045465	9.800496	-0.003537	0.004004	0.001662
01632	14181967	0.058273	0.028994	9.804497	-0.003318	0.001743	-0.000405
01633	14182017	0.041783	0.054488	9.812970	-0.003394	-0.001106	-0.003339
01634	14182067	0.057254	0.046383	9.823914	-0.007687	0.001374	-0.000776
01635	14182117	0.049650	0.039099	9.808147	-0.000055	-0.002234	0.001364
01636	14182167	0.051587	0.034951	9.808366	-0.006767	-0.001579	-0.000190
01637	14182217	0.055338	0.031624	9.816730	-0.003061	0.001582	-0.002359
01638	14182267	0.063827	0.019678	9.823174	-0.007419	-0.001369	-0.003457
01639	14182317	0.052141	0.050966	9.802849	-0.005134	-0.000552	-0.000860
01640	14182367	0.050841	0.051047	9.807643	-0.006535	0.003130	-0.003978
01641	14182417	0.053678	0.055199	9.796608	-0.003561	0.002411	-0.001749
01642	14182467	0.047534	0.044988	9.788256	-0.003467	0.001054	-0.003868
01643	14182517	0.051972	0.045334	9.781989	-0.005659	0.003990	-0.001987
01644	14182567	0.038883	0.046601	9.807702	-0.009255	0.004645	0.001328
01645	14182617	0.040554	0.041203	9.797154	-0.003732	0.001570	-0.002071
01646	14182667	0.061966	0.029494	9.817420	-0.005057	0.003964	-0.004012
01647	14182717	0.049128	0.048901	9.813165	-0.004400	0.003760	-0.000165
01648	14182767	0.042991	0.054681	9.806967	-0.001708	-0.001720	-0.001995
01649	14182817	0.048807	0.045800	9.811012	-0.005153	-0.000006	-0.002170
01650	14182867	0.047599	0.037747	9.796409	-0.004578	-0.001825	0.002173
01651	14182917	0.055504	0.038475	9.810739	-0.006889	0.002158	-0.004751
01652	14182967	0.038982	0.050619	9.773922	-0.001682	-0.001520	-0.000364
01653	14183017	0.064489	0.045896	9.821485	-0.002701	0.000492	-0.000988
01654	14183067	0.040837	0.050279	9.801950	-0.000528	0.003926	0.000884
01655	14183117	0.049773	0.041023	9.814127	-0.005734	-0.000720	0.000488
01656	14183167	0.057700	0.041258	9.807383	-0.004295	-0.000189	-0.004578
01657	14183217	0.038946	0.054964	9.814179	-0.002868	-0.002515	-0.001901
01658	14183267	0.035101	0.038305	9.811560	-0.006051	0.001305	0.000310
01659	14183317	0.043134	0.048942	9.799296	-0.008857	-0.000328	-0.001008
01660	14183367	0.044522	0.045588	9.810075	-0.002651	-0.000116	-0.000321
01661	14183417	0.056022	0.038840	9.807865	-0.005162	0.000220	-0.002591
01662	14183467	0.045603	0.036150	9.805281	-0.003633	0.000638	-0.000921
01663	14183517	0.058283	0.052216	9.797300	-0.007892	0.000591	-0.002294
01664	14183567	0.065934	0.042508	9.786485	-0.009318	0.000052	-0.002256
01665	14183617	0.052457	0.045841	9.813383	-0.005231	0.004876	0.001029
01666	14183667	0.031729	0.043426	9.799114	-0.005981	0.000886	-0.001006
01667	14183717	0.041134	0.052611	9.800031	-0.002936	0.001813	-0.000470
01668	14183767	0.046287	0.047820	9.815577	-0.006571	0.003359	-0.002534
01669	14183817	0.046654	0.053706	9.826360	-0.001940	0.002702	-0.001650
01670	14183867	0.045946	0.051064	9.809114	-0.003180	-0.000646	-0.001471
01671	14183917	0.072676	0.029358	9.792207	-0.002624	0.002781	-0.004182
01672	14183967	0.052508	0.054312	9.804526	-0.001901	0.001541	0.000199
01673	14184017	0.045425	0.034563	9.790904	-0.001055	0.002837	-0.003739
01674	14184067	0.037711	0.040983	9.809152	-0.005551	0.000211	-0.003096
01675	14184117	0.060339	0.037835	9.797536	-0.005818	0.002056	-0.000045
01676	14184167	0.058244	0.050035	9.805928	-0.005469	0.000962	-0.001492
01677	14184217	0.041046	0.055639	9.817041	-0.002919	0.000095	-0.002209
01678	14184267	0.051724	0.043448	9.828012	-0.004096	0.003245	-0.000137
01679	14184317	0.046381	0.039306	9.818933	-0.005854	0.003279	-0.000614
01680	14184367	0.049560	0.056513	9.811246	-0.003779	0.003251	-0.000713
01681	14184417	0.054311	0.043317	9.799242	-0.000135	0.001247	-0.000030
01682	14184467	0.055626	0.033006	9.808594	-0.000468	0.000694	-0.000223
01683	14184517	0.063675	0.037813	9.797761	0.000425	0.001936	0.000962
01684	14184567	0.042197	0.044487	9.802423	-0.003903	0.000924	-0.001395
01685	14184617	0.055584	0.049683	9.818172	-0.000522	0.001469	-0.000700
01686	14184667	0.050118	0.046600	9.793511	-0.006247	0.000139	-0.000308
01687	14184717	0.060894	0.025648	9.810961	-0.002632	0.002301	-0.000277
01688	14184767	0.036106	0.064800	9.807714	0.000861	0.003172	-0.002424
01689	14184817	0.035388	0.043537	9.826417	-0.005668	0.001513	0.002135
