PacketCounter	SampleTimeFine	Acc_X	Acc_Y	Acc_Z	Gyr_X	Gyr_Y	Gyr_Z
00001	13003417	0.044501	0.060628	9.807418	-0.005313	0.002249	0.000490
00002	13003467	0.034847	0.052960	9.810108	-0.002332	-0.001646	-0.003960
00003	13003517	0.033103	0.065323	9.791901	-0.002939	-0.000361	-0.002448
00004	13003567	0.033973	0.075564	9.780395	-0.006805	0.000472	-0.001504
00005	13003617	0.056253	0.074742	9.802085	-0.001510	0.001919	-0.003531
00006	13003667	0.029182	0.078620	9.817319	-0.002741	0.002941	0.001036
00007	13003717	0.056045	0.074462	9.801372	-0.002880	-0.001162	-0.000819
00008	13003767	0.039783	0.086152	9.814386	-0.001890	0.003246	0.000423
00009	13003817	0.059823	0.056078	9.826040	-0.004942	0.003344	-0.002810
00010	13003867	0.060198	0.071045	9.826030	-0.003268	0.000116	0.000437
00011	13003917	0.042026	0.068506	9.836428	-0.002778	0.002975	0.001447
00012	13003967	0.077479	0.062031	9.821876	-0.004993	0.000862	-0.000037
00013	13004017	0.059572	0.055674	9.814066	-0.000656	-0.001840	-0.002238
00014	13004067	0.072409	0.041725	9.797217	-0.004509	0.001840	0.000994
00015	13004117	0.071095	0.059529	9.787636	-0.008705	-0.000847	0.001761
00016	13004167	0.063856	0.056669	9.783110	-0.007296	0.005049	-0.001063
00017	13004217	0.070206	0.053319	9.784046	-0.002504	0.000936	-0.002186
00018	13004267	0.063616	0.058023	9.792942	-0.005483	0.002439	0.001095
00019	13004317	0.048394	0.047530	9.816996	-0.004919	0.001770	0.000676
00020	13004367	0.071264	0.039763	9.825989	-0.004399	0.004420	-0.001813
00021	13004417	0.078203	0.024952	9.842963	-0.004982	0.003570	-0.001817
00022	13004467	0.063830	0.034308	9.837275	-0.005476	0.003686	-0.005658
00023	13004517	0.040998	0.063828	9.818939	-0.003728	0.002174	-0.003906
00024	13004567	0.060144	0.026022	9.806154	-0.004090	0.001490	-0.002339
00025	13004617	0.056099	0.042045	9.799935	-0.000904	0.004029	-0.002689
00026	13004667	0.041128	0.037008	9.784193	-0.004093	0.000878	0.000253
00027	13004717	0.047279	0.034237	9.794000	0.000336	0.000981	-0.004660
00028	13004767	0.054194	0.012415	9.786288	-0.006332	0.003875	-0.001232
00029	13004817	0.073987	0.029571	9.804407	-0.003187	0.000111	-0.003538
00030	13004867	0.041317	0.037938	9.819180	-0.003407	0.002344	-0.001246
00031	13004917	0.052361	0.023601	9.834707	-0.004271	0.002161	-0.003717
00032	13004967	0.047362	0.034116	9.810767	-0.002997	0.004807	0.001010
00033	13005017	0.043368	0.035552	9.805034	-0.005438	0.000753	-0.002756
00034	13005067	0.062091	0.042039	9.804945	-0.000320	0.002619	-0.004040
00035	13005117	0.044928	0.042895	9.802629	-0.006863	0.003543	0.001077
00036	13005167	0.050044	0.037305	9.800680	-0.005602	0.001785	-0.002209
00037	13005217	0.054546	0.028690	9.783409	-0.003932	0.002688	-0.001436
00038	13005267	0.031809	0.053093	9.783033	-0.003771	0.003591	-0.003193
00039	13005317	0.065358	0.053926	9.790776	-0.000334	0.003266	-0.002467
00040	13005367	0.057213	0.054981	9.828207	-0.005474	0.004016	-0.002354
00041	13005417	0.058841	0.044823	9.815501	-0.003351	0.004669	-0.001139
00042	13005467	0.053812	0.065955	9.826545	-0.004832	0.000831	-0.002083
00043	13005517	0.065058	0.070702	9.832239	-0.005397	-0.003733	-0.002912
00044	13005567	0.050015	0.079635	9.830875	-0.002222	0.001198	-0.002217
00045	13005617	0.053166	0.061041	9.817193	-0.006350	0.004385	-0.002126
00046	13005667	0.069399	0.053775	9.805139	-0.007545	0.000687	-0.001597
00047	13005717	0.054607	0.068594	9.808328	-0.004588	0.002193	-0.000861
00048	13005767	0.063011	0.075550	9.792703	-0.006422	0.000416	-0.001891
00049	13005817	0.062567	0.074213	9.808767	-0.003910	0.002076	-0.001536
00050	13005867	0.060606	0.064037	9.804465	-0.003486	0.003958	-0.001012
00051	13005917	0.062214	0.070575	9.812362	-0.003556	0.001248	0.001598
00052	13005967	0.064570	0.047421	9.784315	-0.007392	0.000754	-0.002462
00053	13006017	0.081615	0.052360	9.836713	-0.005750	-0.000541	-0.001451
00054	13006067	0.069106	0.047877	9.841570	-0.004081	0.003526	-0.000376
00055	13006117	0.067632	0.055184	9.795797	-0.003774	0.004047	0.000651
00056	13006167	0.066526	0.048951	9.803239	-0.001063	0.002062	-0.000488
00057	13006217	0.055185	0.044381	9.807364	-0.006950	0.001448	0.001870
00058	13006267	0.052484	0.054973	9.814337	-0.001860	-0.002178	-0.000602
00059	13006317	0.057860	0.026997	9.787949	-0.002998	0.002741	0.001287
00060	13006367	0.050418	0.045445	9.800203	-0.003407	0.001211	-0.001414
00061	13006417	0.065817	0.044033	9.791744	-0.004930	-0.002370	-0.002424
00062	13006467	0.034865	0.041040	9.826411	-0.004861	0.000767	-0.000450
00063	13006517	0.042106	0.029969	9.823738	-0.006882	0.001121	0.001448
00064	13006567	0.039744	0.045290	9.822063	-0.002104	0.004955	0.001295
00065	13006617	0.059570	0.025565	9.819813	-0.004163	0.002812	-0.002716
00066	13006667	0.029638	0.030936	9.803188	-0.002682	0.001744	-0.000383
00067	13006717	0.039917	0.046214	9.805769	-0.001223	0.001092	-0.000039
00068	13006767	0.042488	0.029576	9.814158	-0.000534	-0.001578	-0.001498
00069	13006817	0.042866	0.041429	9.790661	-0.005148	0.001965	0.001574
00070	13006867	0.050729	0.035662	9.788221	-0.005227	-0.000985	-0.001930
00071	13006917	0.038062	0.026355	9.761689	-0.006222	0.000226	-0.001890
00072	13006967	0.036970	0.036989	9.795723	-0.007191	0.001301	-0.003711
00073	13007017	0.059576	0.040329	9.811909	-0.005876	-0.002343	0.001904
00074	13007067	0.046174	0.042102	9.802145	-0.003332	-0.001013	-0.000177
00075	13007117	0.058911	0.038754	9.824125	-0.005426	0.002799	0.001292
00076	13007167	0.052359	0.052624	9.825114	-0.005346	0.001019	-0.000542
00077	13007217	0.062610	0.064575	9.827458	-0.006577	0.002480	-0.002203
00078	13007267	0.061073	0.071852	9.816444	-0.004295	-0.003097	-0.001465
00079	13007317	0.057260	0.062734	9.803515	-0.004978	0.004376	-0.003350
00080	13007367	0.059702	0.045904	9.794411	-0.004063	0.002650	-0.003008
00081	13007417	0.064330	0.040289	9.793425	-0.002056	0.000976	-0.002411
00082	13007467	0.053735	0.061282	9.804737	-0.004800	0.004327	0.001299
00083	13007517	0.071497	0.057021	9.802498	-0.003839	0.001044	0.000414
00084	13007567	0.059853	0.069456	9.802304	-0.003497	0.001311	0.000381
00085	13007617	0.064748	0.055388	9.802521	-0.002556	0.003777	-0.001340
00086	13007667	0.071716	0.049565	9.819986	-0.007051	0.001281	-0.000569
00087	13007717	0.053365	0.046376	9.819839	-0.004084	0.003494	-0.002394
00088	13007767	0.057419	0.048465	9.825093	-0.004446	0.001971	0.000419
00089	13007817	0.060931	0.053409	9.818603	-0.003733	0.000829	0.002912
00090	13007867	0.049831	0.052063	9.814353	-0.005016	0.000109	-0.006576
00091	13007917	0.058641	0.053610	9.797276	-0.004894	0.001996	0.000066
00092	13007967	0.050486	0.049772	9.796853	-0.005606	-0.002185	-0.001872
00093	13008017	0.023843	0.050388	9.806569	-0.006862	0.002411	-0.001812
00094	13008067	0.044452	0.020665	9.813664	-0.006171	0.001518	-0.003100
00095	13008117	0.065873	0.019905	9.809000	-0.003301	0.002126	0.002401
00096	13008167	0.047834	0.043824	9.808848	-0.004069	-0.000219	-0.002187
00097	13008217	0.054092	0.045183	9.819360	-0.002974	0.001901	-0.000834
00098	13008267	0.042879	0.030907	9.824461	0.002020	-0.000438	-0.000858
00099	13008317	0.062936	0.033164	9.851192	-0.005143	0.001441	-0.002369
00100	13008367	0.055494	0.029766	9.820793	-0.003753	0.002178	0.000226
00101	13008417	0.003218	0.045688	9.807158	-0.002898	0.000683	0.001474
00102	13008467	0.033349	0.045560	9.800296	-0.007109	-0.001147	-0.002696
00103	13008517	0.067413	0.031547	9.793177	-0.003813	-0.002217	-0.000597
00104	13008567	0.039519	0.055765	9.801693	-0.004043	0.002299	-0.000701
00105	13008617	0.050923	0.057470	9.786065	-0.006112	-0.001895	0.002746
00106	13008667	0.055441	0.054414	9.791315	-0.003041	-0.001165	0.000304
00107	13008717	0.059361	0.037631	9.803520	-0.005365	0.000304	-0.002470
00108	13008767	0.043622	0.058354	9.804789	-0.004847	-0.000916	-0.003152
00109	13008817	0.050097	0.063929	9.817942	-0.002515	0.000221	-0.003377
00110	13008867	0.052793	0.052418	9.825594	-0.005172	0.002306	-0.003965
00111	13008917	0.080074	0.019987	9.831694	-0.002667	0.000800	-0.004017
00112	13008967	0.048739	0.043974	9.798531	-0.006362	0.001647	-0.001084
00113	13009017	0.068889	0.051773	9.804423	-0.004268	0.001360	0.000865
00114	13009067	0.066282	0.059345	9.803721	-0.002275	-0.001287	-0.002265
00115	13009117	0.064882	0.055746	9.789581	-0.006422	0.001509	-0.002435
00116	13009167	0.050476	0.063273	9.808590	-0.007546	-0.001283	-0.001097
00117	13009217	0.064742	0.041541	9.801807	-0.003888	0.002302	-0.001952
00118	13009267	0.074835	0.048598	9.814219	-0.004978	0.001376	-0.001314
00119	13009317	0.072743	0.040405	9.819510	-0.006267	0.001010	0.002822
00120	13009367	0.044704	0.068115	9.831612	-0.006202	0.002845	-0.001204
00121	13009417	0.041701	0.063088	9.825176	-0.001363	0.001410	-0.002156
00122	13009467	0.052742	0.077381	9.820556	-0.005779	0.001588	-0.001374
00123	13009517	0.075720	0.033304	9.814707	-0.002424	0.001650	-0.001995
00124	13009567	0.068868	0.035898	9.817135	-0.003582	-0.002434	-0.000985
00125	13009617	0.057965	0.050137	9.810952	-0.002677	0.000416	-0.002156
00126	13009667	0.051436	0.058961	9.785095	-0.004397	0.005389	-0.001324
00127	13009717	0.055994	0.053285	9.773098	-0.004184	-0.000313	0.000729
00128	13009767	0.022177	0.072846	9.800578	-0.004627	0.004645	-0.000907
00129	13009817	0.050401	0.062410	9.808345	-0.003758	0.001469	0.000257
00130	13009867	0.076084	0.041186	9.816849	-0.004421	0.002868	-0.004408
00131	13009917	0.040853	0.061706	9.819182	-0.001218	-0.000009	-0.001346
00132	13009967	0.063171	0.031613	9.831290	-0.004680	0.004126	-0.003110
00133	13010017	0.059921	0.023540	9.818381	-0.004266	-0.000642	0.000130
00134	13010067	0.037655	0.056714	9.804100	0.000609	0.001933	-0.001374
00135	13010117	0.047110	0.032120	9.813642	-0.005735	0.004337	-0.000576
00136	13010167	0.047613	0.024388	9.787759	-0.008078	0.004488	-0.001945
00137	13010217	0.038576	0.046406	9.791877	-0.003787	0.002039	-0.002738
00138	13010267	0.042689	0.039667	9.793298	-0.006521	-0.000162	-0.000180
00139	13010317	0.054473	0.045835	9.808568	-0.004529	0.001483	-0.000721
00140	13010367	0.068974	0.020873	9.808744	-0.004411	0.002807	-0.001166
00141	13010417	0.048758	0.043051	9.814600	-0.005990	-0.000734	0.000422
00142	13010467	0.049684	0.039586	9.820817	-0.006812	0.001766	-0.000650
00143	13010517	0.048209	0.032411	9.828494	-0.003615	0.002819	-0.002960
00144	13010567	0.057714	0.049354	9.817425	-0.002634	-0.001875	-0.000748
00145	13010617	0.070251	0.049046	9.828146	-0.003593	-0.000089	-0.004550
00146	13010667	0.062217	0.033818	9.801348	0.000048	0.002435	-0.000218
00147	13010717	0.048576	0.046219	9.794937	-0.003491	0.002117	-0.000399
00148	13010767	0.080758	0.035274	9.805331	-0.002720	0.000869	-0.002336
00149	13010817	0.054515	0.048791	9.800902	-0.005589	-0.002065	-0.006602
00150	13010867	0.062374	0.060126	9.800858	-0.002361	0.000746	-0.000513
00151	13010917	0.072723	0.041978	9.830048	-0.001947	0.000722	-0.001378
00152	13010967	0.053609	0.059474	9.834458	-0.002855	0.001025	-0.003035
00153	13011017	0.059468	0.037971	9.828201	-0.004883	-0.000855	-0.004581
00154	13011067	0.069410	0.048037	9.818556	-0.002850	0.006127	-0.002244
00155	13011117	0.053496	0.058862	9.810970	-0.001962	0.002041	-0.004063
00156	13011167	0.061371	0.046530	9.809737	-0.007416	-0.001082	0.001068
00157	13011217	0.059111	0.051819	9.805907	-0.004330	0.002096	-0.004020
00158	13011267	0.072947	0.059763	9.798891	-0.002846	-0.001029	0.002079
00159	13011317	0.056995	0.066778	9.811667	-0.001308	0.001862	-0.002171
00160	13011367	0.057175	0.067523	9.814060	-0.007194	0.003052	0.000511
00161	13011417	0.059511	0.045983	9.792248	-0.003128	0.001772	0.000556
00162	13011467	0.041130	0.071854	9.819416	-0.003262	0.003059	-0.000877
00163	13011517	0.052531	0.060638	9.818399	-0.004611	0.001162	0.000654
00164	13011567	0.035470	0.045874	9.825439	-0.002960	0.002643	0.000339
00165	13011617	0.047146	0.056140	9.802861	-0.000753	0.002553	-0.000566
00166	13011667	0.047542	0.057079	9.813158	-0.003986	0.002724	0.000120
00167	13011717	0.048604	0.049031	9.813147	-0.003745	0.002948	-0.001322
00168	13011767	0.040986	0.052186	9.813670	-0.005758	0.000045	-0.000115
00169	13011817	0.039249	0.046141	9.795223	-0.003731	0.002530	-0.002222
00170	13011867	0.035111	0.037875	9.803647	-0.001702	-0.000977	0.000127
00171	13011917	0.045980	0.045632	9.784894	-0.003260	0.000960	-0.000025
00172	13011967	0.049989	0.026411	9.787745	-0.002868	0.002709	-0.000275
00173	13012017	0.050468	0.049831	9.831361	-0.007994	-0.000124	0.000305
00174	13012067	0.062740	0.027064	9.809497	-0.002145	0.000918	0.000224
00175	13012117	0.053866	0.046645	9.818639	-0.003611	0.002755	-0.003318
00176	13012167	0.066364	0.043925	9.807316	-0.001188	0.002023	-0.001691
00177	13012217	0.065674	0.033554	9.808754	-0.006600	0.003289	0.000508
00178	13012267	0.055733	0.034377	9.805693	-0.002503	0.003197	-0.001360
00179	13012317	0.061607	0.040988	9.806863	-0.002666	0.001095	-0.002240
00180	13012367	0.059997	0.031545	9.812860	-0.005176	0.001533	-0.003061
00181	13012417	0.069391	0.044050	9.815208	-0.005005	0.002348	-0.000686
00182	13012467	0.057314	0.035293	9.772366	-0.004423	0.003293	-0.000007
00183	13012517	0.049470	0.059856	9.805717	-0.003058	0.003345	-0.004081
00184	13012567	0.044276	0.047620	9.791125	-0.005922	0.001003	-0.003029
00185	13012617	0.063298	0.035210	9.824826	-0.005233	0.001372	-0.001617
00186	13012667	0.040084	0.060974	9.821096	-0.002436	0.002232	-0.001139
00187	13012717	0.042930	0.069084	9.817252	-0.002193	-0.000537	0.000062
00188	13012767	0.054897	0.076416	9.819826	-0.006149	0.001965	-0.004435
00189	13012817	0.051883	0.042683	9.810032	-0.004409	-0.000716	-0.004420
00190	13012867	0.036318	0.060313	9.812016	-0.004284	0.002035	-0.000048
00191	13012917	0.057708	0.046635	9.800401	-0.006797	0.006739	0.000273
00192	13012967	0.061714	0.059597	9.800146	-0.002789	-0.000042	-0.002913
00193	13013017	0.075079	0.045225	9.784494	-0.006593	0.001126	-0.000238
00194	13013067	0.055562	0.061643	9.825824	-0.004775	0.000388	0.002028
00195	13013117	0.046353	0.066421	9.804056	-0.004734	0.000698	-0.004154
00196	13013167	0.055995	0.051891	9.812872	-0.005107	0.001539	-0.001554
00197	13013217	0.036592	0.066877	9.812970	-0.006012	-0.000121	0.000236
00198	13013267	0.028069	0.072599	9.815400	-0.008223	0.002932	-0.004290
00199	13013317	0.036526	0.075385	9.831179	-0.004530	0.001714	-0.000623
00200	13013367	0.057546	0.041589	9.811433	-0.004745	0.002285	-0.001393
00201	13013417	0.057422	0.040115	9.799693	-0.001898	0.001375	0.001129
00202	13013467	0.047524	0.042364	9.800692	-0.002379	0.004362	-0.002214
00203	13013517	0.043752	0.037462	9.811260	-0.001816	0.003560	-0.003475
00204	13013567	0.039983	0.040248	9.812484	-0.009464	-0.001150	0.000782
00205	13013617	0.055506	0.047699	9.813835	-0.004991	0.003026	-0.000682
00206	13013667	0.040225	0.059842	9.807203	-0.005048	0.000539	-0.001077
00207	13013717	0.052410	0.045555	9.822957	-0.005814	0.001556	-0.001328
00208	13013767	0.056813	0.040813	9.828222	-0.003005	-0.001400	-0.003404
00209	13013817	0.057393	0.035489	9.808805	0.000078	0.000171	-0.003401
00210	13013867	0.047535	0.040812	9.823224	-0.002268	-0.000054	0.001539
00211	13013917	0.041533	0.046354	9.824697	-0.004760	-0.001231	0.000036
00212	13013967	0.069689	0.028890	9.808266	-0.005034	-0.001080	-0.003818
00213	13014017	0.053842	0.034211	9.809537	-0.005056	0.002056	-0.001101
00214	13014067	0.056021	0.035643	9.801862	0.000798	0.001998	-0.000124
00215	13014117	0.040359	0.051489	9.797380	-0.004536	0.000742	-0.000180
00216	13014167	0.047627	0.053621	9.805005	-0.004213	0.003714	-0.002118
00217	13014217	0.034908	0.046932	9.803161	-0.001524	0.000703	0.001892
00218	13014267	0.058889	0.044310	9.826047	-0.008528	0.000279	-0.002933
00219	13014317	0.040611	0.056568	9.821100	-0.004714	0.002418	-0.001326
00220	13014367	0.055866	0.040360	9.807363	-0.006260	0.002747	0.001211
00221	13014417	0.059634	0.050042	9.800872	-0.004350	0.002906	-0.001226
00222	13014467	0.047688	0.052489	9.801893	-0.004516	0.002096	-0.001202
00223	13014517	0.051175	0.056084	9.816012	-0.006209	0.001168	0.001010
00224	13014567	0.066351	0.052552	9.798445	-0.004594	-0.000580	-0.000669
00225	13014617	0.047258	0.042826	9.809087	-0.006393	0.002001	0.000503
00226	13014667	0.027566	0.067818	9.803905	-0.007933	-0.000194	-0.001358
00227	13014717	0.046229	0.048465	9.815083	-0.005543	0.001143	-0.002293
00228	13014767	0.030283	0.060382	9.801028	-0.004021	-0.000644	-0.003844
00229	13014817	0.023066	0.047064	9.808008	-0.005036	0.003511	-0.000997
00230	13014867	0.057165	0.048801	9.829171	-0.006060	-0.001001	-0.002588
00231	13014917	0.047747	0.045832	9.799973	-0.005443	0.002149	0.000308
00232	13014967	0.071099	0.049295	9.809921	-0.005421	0.000434	-0.000919
00233	13015017	0.060724	0.045113	9.790325	0.000733	0.001897	-0.002847
00234	13015067	0.056534	0.039526	9.801618	-0.004120	-0.001285	0.000832
00235	13015117	0.073602	0.042704	9.805841	-0.008683	-0.001755	-0.001056
00236	13015167	0.056993	0.047762	9.791548	-0.004429	-0.001873	-0.001765
00237	13015217	0.045906	0.064985	9.799265	-0.007699	0.000620	-0.001809
00238	13015267	0.046336	0.046014	9.810296	-0.003307	0.001345	-0.000662
00239	13015317	0.069224	0.032849	9.802270	-0.003058	0.000179	-0.004068
00240	13015367	0.047501	0.053862	9.810770	-0.002253	-0.000872	-0.003204
00241	13015417	0.054221	0.057992	9.803298	-0.004999	0.003251	-0.001834
00242	13015467	0.058882	0.048911	9.813823	-0.004578	0.002700	-0.004657
00243	13015517	0.058635	0.052183	9.800395	-0.003868	0.002983	-0.000589
00244	13015567	0.058238	0.040345	9.786261	-0.001792	-0.000080	-0.000416
00245	13015617	0.059774	0.045579	9.793449	-0.006944	-0.000176	-0.002746
00246	13015667	0.056662	0.040302	9.799693	-0.003860	0.001461	-0.002775
00247	13015717	0.062985	0.047362	9.805409	-0.005306	0.002058	0.001301
00248	13015767	0.050878	0.048536	9.801887	-0.004747	0.000183	-0.002655
00249	13015817	0.055600	0.044739	9.813361	-0.007670	-0.000216	-0.000629
00250	13015867	0.046523	0.041755	9.832104	-0.006616	-0.000393	-0.001973
00251	13015917	0.060256	0.050649	9.825079	-0.003430	0.001149	-0.001660
00252	13015967	0.058870	0.027158	9.821738	-0.005870	0.000533	0.002064
00253	13016017	0.043348	0.056788	9.841696	-0.005063	0.001182	-0.002228
00254	13016067	0.034784	0.054125	9.814424	-0.000355	-0.000060	-0.000259
00255	13016117	0.041314	0.039263	9.815839	0.001045	0.002232	-0.000474
00256	13016167	0.043303	0.062551	9.798557	-0.001459	0.001639	0.000200
00257	13016217	0.049711	0.041641	9.814590	-0.003118	-0.000755	-0.002564
00258	13016267	0.057594	0.055073	9.784351	-0.003581	-0.000411	-0.004135
00259	13016317	0.050841	0.055391	9.795408	-0.004841	0.000086	-0.002494
00260	13016367	0.048997	0.056491	9.828729	-0.000855	-0.000555	-0.002891
00261	13016417	0.063925	0.043209	9.819552	-0.001151	0.000799	-0.002404
00262	13016467	0.059715	0.035694	9.826758	-0.002459	0.000680	-0.002049
00263	13016517	0.047433	0.060062	9.819379	-0.003593	0.004405	-0.001445
00264	13016567	0.048539	0.079521	9.801401	-0.003844	0.002111	-0.002322
00265	13016617	0.057500	0.064607	9.821971	-0.003954	-0.000670	-0.001886
00266	13016667	0.060438	0.039713	9.805663	-0.006299	0.000773	-0.002422
00267	13016717	0.064537	0.036025	9.803973	-0.005985	0.000873	-0.002166
00268	13016767	0.061987	0.050793	9.803261	-0.002762	0.002421	0.000304
00269	13016817	0.043680	0.048497	9.788251	-0.009475	0.005236	-0.001202
00270	13016867	0.057652	0.049814	9.783629	-0.004914	0.000573	0.000363
00271	13016917	0.064112	0.062783	9.790546	-0.006274	-0.000098	-0.001334
00272	13016967	0.036348	0.066296	9.805543	-0.005189	0.000054	-0.000279
00273	13017017	0.051604	0.062494	9.812416	-0.006968	-0.000238	-0.000563
00274	13017067	0.030357	0.067804	9.810842	-0.004678	0.000160	-0.000113
00275	13017117	0.058448	0.046054	9.810702	-0.004198	0.003135	-0.002827
00276	13017167	0.066113	0.034066	9.801082	-0.009446	0.000233	0.000147
00277	13017217	0.059960	0.021771	9.803992	-0.004208	0.000230	-0.002173
00278	13017267	0.042205	0.067811	9.800237	-0.006407	0.003519	0.000032
00279	13017317	0.049620	0.053457	9.805483	-0.001597	0.001021	-0.000217
00280	13017367	0.067599	0.027538	9.793181	-0.003240	0.001343	0.001254
00281	13017417	0.054838	0.041907	9.784360	-0.005805	0.003528	-0.000932
00282	13017467	0.045077	0.061272	9.798305	-0.004321	0.000510	-0.005789
00283	13017517	0.041689	0.043339	9.825413	-0.001710	0.003607	0.000311
00284	13017567	0.051909	0.036809	9.807150	-0.004154	0.000748	0.000008
00285	13017617	0.063131	0.025199	9.828184	-0.004584	0.001059	-0.001914
00286	13017667	0.045105	0.035498	9.810305	-0.002865	-0.002713	-0.000911
00287	13017717	0.054243	0.036498	9.816725	-0.002331	0.001548	-0.003166
00288	13017767	0.037452	0.044303	9.797396	-0.005575	-0.000090	-0.003514
00289	13017817	0.063738	0.025181	9.791758	-0.000753	0.003387	-0.002102
00290	13017867	0.066322	0.039319	9.782396	-0.001776	0.002339	-0.001430
00291	13017917	0.056598	0.026885	9.787244	-0.006507	-0.002846	-0.002089
00292	13017967	0.056846	0.047422	9.797295	-0.004268	0.000265	-0.001116
00293	13018017	0.049986	0.052289	9.816264	-0.003597	0.003372	-0.002318
00294	13018067	0.044012	0.047511	9.793290	0.001462	0.002231	-0.001123
00295	13018117	0.046163	0.056153	9.810532	-0.001957	0.001010	-0.001500
00296	13018167	0.062595	0.056388	9.821475	-0.005693	-0.000151	-0.000474
00297	13018217	0.047348	0.062500	9.831612	-0.002426	0.003106	0.000533
00298	13018267	0.052143	0.048677	9.831591	-0.006609	-0.001521	-0.000282
00299	13018317	0.056272	0.046724	9.785560	-0.002120	-0.001155	-0.002825
00300	13018367	0.068167	0.054259	9.796032	-0.004078	0.003855	0.002589
00301	13018417	0.051388	0.048464	9.799964	-0.006592	0.000028	0.000557
00302	13018467	0.052471	0.058284	9.802113	-0.002918	-0.001337	-0.004168
00303	13018517	0.058960	0.042891	9.809035	0.000487	0.001932	0.001799
00304	13018567	0.056101	0.044202	9.811202	-0.002111	0.000878	-0.001601
00305	13018617	0.048474	0.058004	9.815066	-0.003058	0.003640	-0.001772
00306	13018667	0.042506	0.065372	9.809340	-0.003999	0.003202	-0.000970
00307	13018717	0.049350	0.047446	9.818907	-0.005662	0.001784	-0.003184
00308	13018767	0.056124	0.039858	9.809761	-0.006125	0.001657	0.002778
00309	13018817	0.057613	0.065918	9.821733	-0.000972	0.003292	-0.001749
00310	13018867	0.057216	0.032862	9.804251	-0.006042	0.000813	-0.001270
00311	13018917	0.047158	0.076750	9.787510	-0.001637	0.004609	0.002203
00312	13018967	0.046813	0.062061	9.812204	-0.002862	0.000414	-0.001407
00313	13019017	0.051916	0.046953	9.780061	-0.004612	0.005487	0.001255
00314	13019067	0.051402	0.053967	9.800674	-0.004575	0.005032	-0.000896
00315	13019117	0.062036	0.051059	9.808294	-0.006820	0.000022	-0.002200
00316	13019167	0.066428	0.034472	9.808276	0.000694	0.002421	0.001800
00317	13019217	0.051201	0.042788	9.833035	-0.002891	0.001091	-0.001564
00318	13019267	0.060634	0.047783	9.828909	-0.002013	0.002880	-0.003252
00319	13019317	0.057094	0.053324	9.831090	-0.004417	-0.000264	-0.004612
00320	13019367	0.043341	0.055732	9.811264	0.000110	0.000666	0.000446
00321	13019417	0.057892	0.043445	9.800402	-0.002091	0.001004	-0.003967
00322	13019467	0.065949	0.043530	9.807088	-0.005328	-0.000895	-0.005284
00323	13019517	0.047266	0.043420	9.818913	-0.005686	0.000786	0.000142
00324	13019567	0.052114	0.038248	9.805470	-0.002801	0.003613	-0.000652
00325	13019617	0.047674	0.048186	9.818910	-0.003852	-0.000633	0.000164
00326	13019667	0.052436	0.033174	9.805708	-0.006752	0.000992	-0.002161
00327	13019717	0.043656	0.046850	9.820854	-0.000327	0.000403	0.002372
00328	13019767	0.054271	0.039348	9.814805	-0.002377	0.001298	-0.000311
00329	13019817	0.041824	0.040931	9.818225	-0.006093	0.000522	-0.000212
00330	13019867	0.060955	0.053259	9.823396	-0.004209	0.000483	-0.001660
00331	13019917	0.047864	0.050755	9.822030	-0.004489	0.000482	0.002023
00332	13019967	0.062791	0.042069	9.798941	-0.004020	0.003876	0.000341
00333	13020017	0.047777	0.063704	9.809793	-0.006483	0.001733	-0.001132
00334	13020067	0.049074	0.060747	9.804760	-0.004659	0.000601	-0.002110
00335	13020117	0.048889	0.052009	9.805964	-0.003842	0.001001	-0.001533
00336	13020167	0.057347	0.070463	9.799448	-0.002661	-0.000882	-0.001352
00337	13020217	0.065429	0.070740	9.816893	-0.004493	0.001668	0.000171
00338	13020267	0.042777	0.057046	9.811265	-0.002395	0.003362	0.003029
00339	13020317	0.051239	0.061598	9.815783	-0.004344	-0.004495	-0.001336
00340	13020367	0.074787	0.049439	9.812060	-0.010256	0.003731	-0.000669
00341	13020417	0.050135	0.061147	9.811461	-0.006176	0.000960	-0.002811
00342	13020467	0.061141	0.053696	9.782173	-0.004080	0.000684	0.002921
00343	13020517	0.062739	0.064772	9.807566	-0.001683	0.001689	0.000039
00344	13020567	0.063197	0.043989	9.811886	-0.004190	0.001769	-0.003352
00345	13020617	0.050193	0.051065	9.789176	-0.002628	0.002124	-0.001882
00346	13020667	0.052587	0.070340	9.799714	-0.005791	-0.002101	-0.000839
00347	13020717	0.063365	0.051288	9.804929	-0.001367	0.001893	0.001284
00348	13020767	0.066763	0.053246	9.803719	-0.002549	0.000772	-0.000288
00349	13020817	0.050207	0.043666	9.825127	-0.002099	0.003645	-0.002167
00350	13020867	0.060404	0.043592	9.819086	-0.004479	0.000094	0.001541
00351	13020917	0.049440	0.043444	9.814109	-0.007037	0.000850	-0.001845
00352	13020967	0.051739	0.043454	9.819366	-0.005233	0.003624	-0.001963
00353	13021017	0.056110	0.040370	9.808083	-0.005461	0.002583	-0.002642
00354	13021067	0.058395	0.058824	9.802320	-0.002211	-0.001232	-0.002928
00355	13021117	0.064847	0.043150	9.803003	-0.004811	0.004308	-0.002443
00356	13021167	0.041502	0.050864	9.811271	-0.003986	0.002614	-0.001779
00357	13021217	0.053741	0.022004	9.822967	-0.007427	-0.000097	-0.003967
00358	13021267	0.058496	0.040018	9.813819	-0.007904	0.001830	-0.003280
00359	13021317	0.045900	0.050571	9.821551	-0.003391	0.003843	-0.005525
00360	13021367	0.050768	0.039668	9.840470	-0.001913	0.000846	-0.000064
00361	13021417	0.043169	0.031875	9.811744	-0.002716	0.001154	0.000583
00362	13021467	0.067462	0.043544	9.830085	-0.002035	-0.000186	0.002465
00363	13021517	0.063141	0.038278	9.830097	-0.002231	0.004712	-0.002129
00364	13021567	0.057027	0.056333	9.797779	0.000533	0.001079	-0.002923
00365	13021617	0.038127	0.061312	9.793795	-0.002067	-0.000484	-0.000612
00366	13021667	0.059176	0.043352	9.806628	-0.005464	0.001846	-0.002009
00367	13021717	0.033497	0.056708	9.821136	-0.005285	0.001267	-0.000849
00368	13021767	0.042003	0.049148	9.812955	-0.003184	-0.000340	-0.000063
00369	13021817	0.058303	0.058344	9.798481	-0.004455	0.004449	-0.000008
00370	13021867	0.065503	0.042263	9.812592	-0.006983	-0.000993	-0.002497
00371	13021917	0.037172	0.068446	9.821359	-0.005286	0.001202	-0.003322
00372	13021967	0.049765	0.060565	9.806916	-0.001264	-0.000528	0.000857
00373	13022017	0.074208	0.042986	9.822143	-0.005466	-0.001383	-0.002215
00374	13022067	0.060589	0.034250	9.791042	-0.006744	0.003056	0.000763
00375	13022117	0.051405	0.053844	9.822967	-0.005192	0.000973	-0.003900
00376	13022167	0.062040	0.063996	9.808530	-0.002988	0.001504	0.000323
00377	13022217	0.049609	0.051787	9.810278	-0.001444	-0.001059	-0.003313
00378	13022267	0.050130	0.066846	9.799723	-0.001727	0.000904	-0.002407
00379	13022317	0.059278	0.060161	9.804951	-0.003630	0.000393	-0.000028
00380	13022367	0.047481	0.055551	9.786793	-0.004501	0.003669	-0.002576
00381	13022417	0.040200	0.061605	9.802885	-0.004210	0.002510	-0.002354
00382	13022467	0.061306	0.049217	9.825071	-0.004905	-0.003021	-0.002803
00383	13022517	0.048453	0.046453	9.806444	-0.005594	0.001941	-0.001298
00384	13022567	0.064321	0.052966	9.818829	-0.001622	-0.000252	-0.000522
00385	13022617	0.044673	0.045856	9.815341	-0.002715	-0.001335	-0.002799
00386	13022667	0.061010	0.054853	9.796067	-0.005329	0.003258	-0.006195
00387	13022717	0.058501	0.059384	9.811659	-0.002578	0.002076	-0.007845
00388	13022767	0.046821	0.048540	9.812919	-0.005949	-0.000528	-0.005732
00389	13022817	0.046748	0.061165	9.797349	-0.002273	-0.001033	-0.001550
00390	13022867	0.035239	0.043316	9.823534	0.000161	0.002107	0.000196
00391	13022917	0.050962	0.049597	9.812180	-0.001875	0.004485	-0.004502
00392	13022967	0.049218	0.040847	9.804042	-0.002753	0.003188	-0.000144
00393	13023017	0.061716	0.031876	9.821720	-0.005890	-0.001299	-0.004327
00394	13023067	0.061624	0.039426	9.808291	-0.006376	0.002281	-0.002480
00395	13023117	0.040434	0.040273	9.801455	-0.005144	0.003117	0.002713
00396	13023167	0.031747	0.041263	9.808443	-0.004779	0.004473	-0.002151
00397	13023217	0.049317	0.033293	9.808123	-0.000427	0.002189	-0.002944
00398	13023267	0.055399	0.044957	9.807850	-0.001138	0.002401	-0.003906
00399	13023317	0.062308	0.050284	9.807817	-0.000447	-0.000202	-0.002478
00400	13023367	0.051004	0.037381	9.806201	-0.000575	-0.000264	-0.002957
00401	13023417	0.043814	0.037583	9.799759	-0.001393	0.003495	-0.003544
00402	13023467	0.045564	0.050245	9.808852	-0.003569	0.001720	0.000042
00403	13023517	0.073493	0.031281	9.812557	-0.006793	-0.002192	-0.006705
00404	13023567	0.049374	0.058355	9.826575	-0.002729	0.000082	-0.004200
00405	13023617	0.054059	0.054857	9.810722	-0.001996	0.002324	-0.002397
00406	13023667	0.061829	0.048515	9.793910	-0.003808	0.002774	-0.004341
00407	13023717	0.051198	0.055012	9.808107	-0.004248	0.002936	-0.000273
00408	13023767	0.053539	0.053771	9.815279	-0.005497	0.001340	0.004018
00409	13023817	0.052933	0.049591	9.804516	-0.006093	0.001349	-0.002714
00410	13023867	0.048574	0.042020	9.810281	-0.000338	0.000220	-0.003760
00411	13023917	0.053711	0.039711	9.808819	-0.001871	0.003461	-0.001623
00412	13023967	0.065794	0.045875	9.815712	-0.003602	0.000619	-0.000862
00413	13024017	0.053350	0.069715	9.810489	-0.005700	0.002295	-0.000561
00414	13024067	0.052593	0.053152	9.819601	-0.005392	0.002459	-0.003472
00415	13024117	0.065120	0.043759	9.813787	-0.004018	0.003613	-0.002610
00416	13024167	0.044642	0.057174	9.818919	-0.003969	0.003131	-0.001552
00417	13024217	0.037848	0.034402	9.817527	-0.003550	0.001237	0.001192
00418	13024267	0.066817	0.059876	9.817852	-0.002967	0.001695	-0.001951
00419	13024317	0.046350	0.034879	9.791359	-0.002506	-0.000038	-0.002022
00420	13024367	0.063330	0.036590	9.786481	-0.003908	-0.001166	-0.003438
00421	13024417	0.057901	0.056303	9.806151	-0.005807	0.000189	-0.003804
00422	13024467	0.053280	0.037455	9.817683	-0.010097	0.001434	-0.004011
00423	13024517	0.046488	0.046361	9.796629	-0.005865	-0.001074	-0.005126
00424	13024567	0.051577	0.051344	9.801395	-0.003625	0.000063	-0.002786
00425	13024617	0.046124	0.049897	9.800467	-0.001833	-0.000966	-0.002221
00426	13024667	0.049673	0.043356	9.811230	-0.004461	0.000511	0.000902
00427	13024717	0.053688	0.034110	9.797557	-0.005308	0.002813	-0.002772
00428	13024767	0.046765	0.047107	9.811007	-0.005145	0.002213	0.002839
00429	13024817	0.077148	0.043707	9.825953	-0.002287	0.002483	-0.001112
00430	13024867	0.044006	0.049864	9.826117	-0.005982	0.003325	-0.000069
00431	13024917	0.061860	0.040206	9.809257	-0.006021	0.001287	-0.001208
00432	13024967	0.049025	0.059436	9.795408	-0.003543	0.002977	-0.001135
00433	13025017	0.050242	0.047463	9.804279	-0.006504	-0.000656	-0.000571
00434	13025067	0.058518	0.037761	9.816459	-0.000963	0.001285	0.001952
00435	13025117	0.068135	0.044284	9.795797	-0.003335	0.001105	-0.002336
00436	13025167	0.040454	0.059388	9.813682	-0.001489	-0.001609	-0.001680
00437	13025217	0.075401	0.048727	9.807027	-0.003585	0.001170	-0.000796
00438	13025267	0.052813	0.057656	9.819602	-0.007920	0.001641	-0.001354
00439	13025317	0.037258	0.049136	9.798110	-0.002869	0.002503	-0.002968
00440	13025367	0.059214	0.056753	9.815011	-0.004531	0.001937	0.001837
00441	13025417	0.073879	0.033081	9.803683	-0.003114	0.001241	-0.003105
00442	13025467	0.068225	0.050074	9.807788	-0.004732	-0.000373	-0.003047
00443	13025517	0.065629	0.055123	9.812828	-0.006053	-0.002878	-0.001065
00444	13025567	0.044931	0.071976	9.794002	-0.007278	-0.000706	-0.003070
00445	13025617	0.045781	0.065155	9.812207	-0.002206	0.002833	-0.003354
00446	13025667	0.062841	0.048434	9.802061	-0.002544	-0.000358	0.001279
00447	13025717	0.048012	0.063055	9.807642	-0.004857	0.001024	0.000555
00448	13025767	0.045351	0.061006	9.820117	-0.003236	0.001505	0.001737
00449	13025817	0.045901	0.060451	9.805972	-0.004969	0.002569	-0.000174
00450	13025867	0.045440	0.063341	9.834976	-0.004311	0.002702	-0.003731
00451	13025917	0.058577	0.059385	9.797047	-0.002041	0.001708	-0.001887
00452	13025967	0.054029	0.027170	9.797794	-0.006218	-0.000484	0.002248
00453	13026017	0.053102	0.044805	9.810981	-0.004116	-0.003685	-0.003642
00454	13026067	0.038549	0.056205	9.814635	-0.005099	0.001202	-0.004058
00455	13026117	0.078589	0.060008	9.795504	-0.007388	0.002009	-0.001041
00456	13026167	0.048758	0.052942	9.822501	-0.002684	0.003091	0.001042
00457	13026217	0.035286	0.060483	9.798596	-0.004485	0.000481	0.002252
00458	13026267	0.044188	0.057415	9.818442	-0.004559	0.001704	0.000332
00459	13026317	0.061506	0.051303	9.811412	-0.005066	-0.000630	0.000194
00460	13026367	0.064271	0.060244	9.803488	-0.004199	0.000861	-0.004675
00461	13026417	0.042843	0.060382	9.809820	-0.003106	-0.000117	-0.002243
00462	13026467	0.042939	0.051374	9.807430	-0.005020	0.000686	-0.004284
00463	13026517	0.033391	0.051373	9.801485	-0.002921	0.003476	0.000242
00464	13026567	0.042561	0.045313	9.800724	-0.003202	0.002212	0.000817
00465	13026617	0.051597	0.056765	9.791571	-0.002156	-0.000715	-0.001612
00466	13026667	0.046996	0.046767	9.805016	-0.004920	0.002726	-0.002159
00467	13026717	0.051296	0.037888	9.799486	-0.002880	-0.001051	-0.002672
00468	13026767	0.054278	0.031180	9.817924	-0.006256	0.001572	-0.001205
00469	13026817	0.074620	0.024915	9.812551	-0.004942	0.002536	-0.000118
00470	13026867	0.050291	0.057948	9.799006	-0.007456	0.000935	-0.002229
00471	13026917	0.055043	0.030773	9.815279	-0.003681	0.002135	0.000142
00472	13026967	0.063989	0.042128	9.811631	-0.002407	0.001255	-0.001024
00473	13027017	0.048595	0.033435	9.820828	-0.005688	-0.001355	-0.001800
00474	13027067	0.061596	0.053946	9.828190	-0.003722	0.002395	-0.001109
00475	13027117	0.064684	0.056181	9.824336	-0.002513	0.002443	-0.004030
00476	13027167	0.045986	0.050210	9.815806	-0.002061	0.000552	0.001315
00477	13027217	0.049697	0.045210	9.813870	-0.004759	-0.000301	-0.000862
00478	13027267	0.065366	0.034053	9.798932	-0.002344	-0.000714	-0.000137
00479	13027317	0.063944	0.055178	9.799421	-0.001835	-0.001474	0.002033
00480	13027367	0.055321	0.045443	9.804730	-0.002185	0.003554	0.000786
00481	13027417	0.058606	0.050089	9.798494	-0.003346	-0.002705	-0.002997
00482	13027467	0.050082	0.053946	9.816980	-0.004056	-0.003398	-0.002232
00483	13027517	0.043248	0.048715	9.798081	-0.004203	0.002514	0.000146
00484	13027567	0.064835	0.057235	9.802044	-0.005298	0.000358	-0.004032
00485	13027617	0.042776	0.039915	9.813900	-0.003869	0.002072	0.000688
00486	13027667	0.045143	0.053081	9.810778	-0.003026	0.003668	-0.000911
00487	13027717	0.053085	0.046473	9.827991	-0.003639	0.003714	-0.003634
00488	13027767	0.050292	0.050264	9.809070	-0.004176	0.002706	-0.000691
00489	13027817	0.041481	0.056079	9.793772	-0.003941	0.003064	-0.003412
00490	13027867	0.044270	0.044279	9.810300	-0.003675	-0.001123	-0.000258
00491	13027917	0.031457	0.055584	9.807972	-0.003286	0.000857	0.000326
00492	13027967	0.056551	0.067553	9.803761	-0.002954	0.002111	-0.003645
00493	13028017	0.033609	0.069281	9.810586	-0.003268	0.001942	-0.005278
00494	13028067	0.063216	0.042370	9.807091	-0.004794	0.002759	-0.004215
00495	13028117	0.055454	0.044607	9.808571	-0.007364	-0.001032	-0.002655
00496	13028167	0.049546	0.064514	9.825851	-0.002720	0.001150	-0.001598
00497	13028217	0.053252	0.054861	9.821751	-0.004263	0.002417	0.000400
00498	13028267	0.037459	0.049196	9.820882	-0.005903	-0.001515	-0.000387
00499	13028317	0.054906	0.041807	9.825592	-0.002651	-0.003167	0.001899
00500	13028367	0.042331	0.048350	9.793774	-0.002407	0.001416	0.000100
00501	13028417	0.066126	0.025803	9.812593	-0.002567	0.000025	-0.001892
00502	13028467	0.033271	0.057937	9.820186	-0.005486	-0.001512	-0.001126
00503	13028517	0.060925	0.042830	9.807334	-0.003782	0.002327	-0.000628
00504	13028567	0.062331	0.053325	9.820269	-0.003357	0.000885	-0.000191
00505	13028617	0.044672	0.031163	9.830914	-0.004894	0.000858	-0.001241
00506	13028667	0.072159	0.040709	9.800334	-0.004464	0.001111	-0.006242
00507	13028717	0.059444	0.026684	9.829881	-0.001913	0.004778	-0.003699
00508	13028767	0.062201	0.036184	9.823627	-0.004252	0.004964	-0.002120
00509	13028817	0.056417	0.048713	9.791549	-0.004665	-0.000171	0.001221
00510	13028867	0.062410	0.043988	9.796310	-0.002811	0.000993	0.001474
00511	13028917	0.076539	0.048245	9.806059	-0.004596	0.001699	-0.000953
00512	13028967	0.071634	0.049143	9.789785	-0.004118	0.003541	-0.003669
00513	13029017	0.056644	0.037817	9.802088	-0.007372	0.003557	-0.001381
00514	13029067	0.060687	0.033258	9.814294	-0.002940	0.002958	-0.001268
00515	13029117	0.051411	0.047425	9.793965	-0.005338	0.002948	0.000631
00516	13029167	0.039465	0.046603	9.798347	-0.000273	0.000778	0.001726
00517	13029217	0.033288	0.057247	9.811549	-0.008967	0.002036	-0.004523
00518	13029267	0.062972	0.045256	9.809002	-0.003374	0.002429	-0.001691
00519	13029317	0.045586	0.047305	9.810527	-0.005683	0.001718	0.000688
00520	13029367	0.042476	0.056785	9.819176	-0.001053	0.005055	-0.001836
00521	13029417	0.043403	0.053764	9.821089	-0.004863	-0.002573	-0.005874
00522	13029467	0.048923	0.055622	9.828488	-0.005297	0.001558	-0.001783
00523	13029517	0.058211	0.034618	9.799452	-0.003468	0.000625	0.001254
00524	13029567	0.069063	0.046496	9.827427	-0.002633	0.001381	0.000103
00525	13029617	0.044017	0.055742	9.822282	-0.002527	-0.000204	-0.002598
00526	13029667	0.046341	0.059984	9.824673	-0.001325	-0.000632	-0.001228
00527	13029717	0.069580	0.049583	9.804416	-0.006194	0.003441	-0.003120
00528	13029767	0.057785	0.039423	9.809036	-0.005130	0.002238	-0.002804
00529	13029817	0.049266	0.056475	9.805240	-0.003886	0.002453	-0.002325
00530	13029867	0.079425	0.038933	9.786636	-0.004147	0.001384	-0.004258
00531	13029917	0.042139	0.049925	9.822776	-0.005206	-0.000430	-0.001473
00532	13029967	0.055623	0.051639	9.813115	-0.005762	0.005274	-0.002756
00533	13030017	0.063966	0.054153	9.814750	-0.005129	0.005249	-0.002631
00534	13030067	0.053440	0.054598	9.796835	-0.001496	0.001768	-0.001185
00535	13030117	0.043259	0.061646	9.815096	-0.007871	0.000043	0.000139
00536	13030167	0.043357	0.068575	9.818448	-0.003332	0.001287	-0.000054
00537	13030217	0.050188	0.055801	9.806676	-0.000743	0.002296	-0.000314
00538	13030267	0.045933	0.043457	9.806460	-0.002468	0.000169	-0.001121
00539	13030317	0.060697	0.037013	9.803750	-0.000516	0.003202	-0.000922
00540	13030367	0.056282	0.045614	9.811921	-0.002980	0.004028	-0.002510
00541	13030417	0.046284	0.030460	9.813892	-0.004241	-0.000308	0.001346
00542	13030467	0.053486	0.039642	9.821524	-0.005136	0.000577	0.000199
00543	13030517	0.050302	0.051915	9.794690	-0.004444	0.001972	-0.000853
00544	13030567	0.055883	0.058940	9.808798	-0.001854	0.003589	-0.006300
00545	13030617	0.057188	0.044786	9.818147	-0.002814	0.002872	-0.001784
00546	13030667	0.048875	0.049219	9.812193	-0.004996	0.002190	-0.001587
00547	13030717	0.046290	0.037994	9.815565	-0.004468	-0.003576	-0.000564
00548	13030767	0.036276	0.058087	9.799794	-0.003071	-0.001267	-0.003436
00549	13030817	0.046460	0.051962	9.807407	-0.003208	0.004254	-0.001612
00550	13030867	0.051147	0.054756	9.812657	-0.003304	0.002483	0.000782
00551	13030917	0.057230	0.074127	9.791532	-0.003230	0.002895	-0.001235
00552	13030967	0.059762	0.040811	9.804950	-0.000828	0.002744	-0.001885
00553	13031017	0.047559	0.047027	9.805497	-0.002171	-0.000510	-0.003888
00554	13031067	0.051420	0.068741	9.814807	-0.004323	0.003004	-0.003378
00555	13031117	0.039384	0.053682	9.810327	-0.002800	-0.001486	-0.000940
00556	13031167	0.049647	0.054481	9.796373	-0.004952	-0.000494	-0.003783
00557	13031217	0.031751	0.055472	9.799577	-0.004444	0.000840	-0.001243
00558	13031267	0.043931	0.050852	9.796641	-0.004584	0.001229	-0.000663
00559	13031317	0.065317	0.051174	9.804921	-0.006232	0.000912	0.000522
00560	13031367	0.047233	0.058074	9.822981	-0.004834	0.002095	-0.001267
00561	13031417	0.081603	0.040851	9.810827	-0.006314	0.003329	-0.002254
00562	13031467	0.049679	0.035866	9.818419	-0.005896	0.002974	-0.005105
00563	13031517	0.050633	0.036624	9.807399	-0.000823	-0.002678	-0.002393
00564	13031567	0.065555	0.042525	9.827692	-0.005036	0.001577	0.000462
00565	13031617	0.053418	0.041286	9.827272	-0.004262	0.001208	-0.000633
00566	13031667	0.052715	0.053826	9.791800	-0.006159	0.002293	-0.003635
00567	13031717	0.067073	0.047125	9.827200	-0.004610	0.004163	-0.001740
00568	13031767	0.060557	0.046388	9.808059	-0.004412	0.002008	-0.000244
00569	13031817	0.050383	0.068295	9.794926	-0.004555	0.003488	-0.001003
00570	13031867	0.054132	0.056008	9.811689	-0.003763	-0.001038	0.003521
00571	13031917	0.074887	0.042076	9.817575	-0.007204	0.001083	-0.002359
00572	13031967	0.048784	0.053592	9.806447	-0.003960	0.001654	-0.002873
00573	13032017	0.064630	0.049137	9.818348	-0.002382	-0.000635	-0.000615
00574	13032067	0.049579	0.058577	9.828243	-0.001890	0.001182	0.001061
00575	13032117	0.050453	0.064885	9.796121	-0.004987	0.001965	0.000019
00576	13032167	0.049754	0.058294	9.812193	-0.004179	-0.001803	-0.003437
00577	13032217	0.059881	0.045862	9.809743	-0.005611	0.001206	-0.003292
00578	13032267	0.029280	0.056229	9.791197	-0.003108	0.004062	-0.002380
00579	13032317	0.060614	0.046294	9.801348	-0.002377	0.003036	-0.004570
00580	13032367	0.049915	0.046937	9.799009	-0.001462	0.001606	-0.001505
00581	13032417	0.054168	0.047206	9.806176	-0.006115	0.003003	-0.003854
00582	13032467	0.050141	0.036359	9.817468	-0.007302	0.003412	0.000095
00583	13032517	0.041674	0.060389	9.806473	-0.006704	0.000551	-0.000595
00584	13032567	0.073739	0.036670	9.788586	-0.003430	0.001026	-0.000643
00585	13032617	0.062064	0.054929	9.798956	-0.000103	-0.001150	-0.003031
00586	13032667	0.055063	0.044538	9.813121	-0.005687	0.003725	-0.002218
00587	13032717	0.053647	0.057156	9.794192	-0.004780	0.001486	0.000075
00588	13032767	0.061514	0.039512	9.790320	-0.005602	0.001147	-0.000341
00589	13032817	0.062242	0.038033	9.818835	-0.001700	0.003415	0.000522
00590	13032867	0.054390	0.042986	9.823193	-0.004660	0.000481	-0.002525
00591	13032917	0.058685	0.035948	9.807602	-0.004654	-0.001609	0.000253
00592	13032967	0.047599	0.037924	9.811481	-0.001860	0.001149	0.000259
00593	13033017	0.063073	0.035595	9.818835	-0.004775	0.000422	0.002088
00594	13033067	0.045990	0.054487	9.822033	-0.005612	-0.002526	0.001916
00595	13033117	0.054487	0.045884	9.806893	-0.004297	-0.000504	0.001248
00596	13033167	0.057324	0.036976	9.810956	-0.006085	0.002141	-0.001168
00597	13033217	0.055062	0.052044	9.815283	-0.007491	-0.000383	-0.006112
00598	13033267	0.052962	0.059920	9.795397	-0.007981	-0.000936	-0.004094
00599	13033317	0.053626	0.053913	9.804742	-0.005404	-0.000501	-0.004357
00600	13033367	0.083582	0.042472	9.805557	-0.001393	0.000639	0.001243
00601	13033417	0.056407	0.060329	9.808562	-0.004929	-0.000172	-0.003235
00602	13033467	0.053693	0.054975	9.827270	-0.004624	0.002451	-0.001618
00603	13033517	0.067105	0.042903	9.807317	-0.005528	-0.000338	-0.002533
00604	13033567	0.040352	0.050219	9.804087	-0.003127	0.002807	-0.000018
00605	13033617	0.046790	0.054243	9.827061	-0.003988	0.001726	0.000937
00606	13033667	0.060052	0.042839	9.802796	-0.005415	-0.001358	0.004037
00607	13033717	0.054841	0.041832	9.818395	-0.005823	0.002279	0.001972
00608	13033767	0.050059	0.049456	9.815786	-0.005918	0.000175	0.002253
00609	13033817	0.068111	0.036194	9.801544	-0.002981	0.003492	0.001713
00610	13033867	0.055185	0.042469	9.811924	-0.004788	-0.000129	0.000227
00611	13033917	0.053559	0.039313	9.818411	-0.002623	-0.000988	0.001276
00612	13033967	0.050893	0.026704	9.803081	-0.002201	0.001053	0.002760
00613	13034017	0.038915	0.047799	9.786838	-0.006556	0.004968	-0.002942
00614	13034067	0.050828	0.041267	9.799965	-0.008006	-0.001764	0.000613
00615	13034117	0.046485	0.049580	9.803569	-0.004410	0.003911	-0.000907
00616	13034167	0.047305	0.062568	9.814594	-0.001700	0.001180	-0.000894
00617	13034217	0.058924	0.046750	9.802554	-0.001737	0.002179	-0.001503
00618	13034267	0.061221	0.043451	9.797035	-0.004923	-0.000459	-0.002211
00619	13034317	0.064900	0.066628	9.810189	-0.003492	0.001282	0.000103
00620	13034367	0.059737	0.047358	9.806869	-0.002570	-0.001540	0.001943
00621	13034417	0.046563	0.050252	9.808133	-0.004245	-0.001211	0.002783
00622	13034467	0.045925	0.053486	9.810291	-0.006370	0.001101	-0.001111
00623	13034517	0.043608	0.054061	9.810308	0.000840	0.000008	0.001621
00624	13034567	0.043936	0.055490	9.797599	-0.007111	0.001249	-0.001232
00625	13034617	0.060288	0.044862	9.819088	-0.002390	0.001690	-0.000862
00626	13034667	0.049459	0.053646	9.817221	-0.005163	0.003415	-0.001034
00627	13034717	0.056669	0.054425	9.820543	-0.004326	0.000235	-0.000768
00628	13034767	0.031714	0.059040	9.804138	0.000293	-0.000460	-0.001999
00629	13034817	0.049466	0.047547	9.802133	-0.002431	-0.000349	-0.003502
00630	13034867	0.063046	0.055217	9.820500	-0.005650	0.001895	0.001618
00631	13034917	0.057839	0.042713	9.812635	-0.004214	-0.002710	-0.004886
00632	13034967	0.056820	0.056202	9.798736	-0.004525	-0.002841	-0.002031
00633	13035017	0.043975	0.056212	9.818928	-0.003147	0.001353	-0.000507
00634	13035067	0.052476	0.059531	9.822952	-0.005624	0.003923	-0.000037
00635	13035117	0.055039	0.042881	9.803298	-0.001310	-0.000129	-0.000329
00636	13035167	0.054143	0.058638	9.810727	-0.002812	0.004738	-0.004465
00637	13035217	0.066921	0.050556	9.814971	-0.007262	0.003187	0.000091
00638	13035267	0.046436	0.044924	9.798787	-0.005361	0.000440	-0.001369
00639	13035317	0.058848	0.056564	9.792967	-0.005312	0.001954	-0.002133
00640	13035367	0.074189	0.043127	9.812551	-0.006115	0.002399	0.000915
00641	13035417	0.054249	0.040649	9.809295	-0.001267	0.000942	0.003781
00642	13035467	0.076911	0.034326	9.808694	-0.001778	0.002501	-0.002046
00643	13035517	0.046198	0.058588	9.801899	-0.004297	0.002494	0.000113
00644	13035567	0.071235	0.038866	9.794827	-0.006950	0.003251	-0.001707
00645	13035617	0.051919	0.030675	9.790858	-0.004396	-0.000700	0.000352
00646	13035667	0.051033	0.052278	9.803549	-0.004446	0.001907	-0.001654
00647	13035717	0.051871	0.053114	9.805944	-0.007252	0.003634	-0.002376
00648	13035767	0.042517	0.046454	9.804078	-0.005659	0.003657	-0.004265
00649	13035817	0.046978	0.031305	9.806938	-0.001062	0.002460	0.002222
00650	13035867	0.062863	0.042202	9.808773	-0.001141	-0.001514	0.000273
00651	13035917	0.045414	0.041993	9.803348	-0.005034	0.002348	-0.001844
00652	13035967	0.040521	0.044803	9.784434	-0.007141	0.001016	-0.003610
00653	13036017	0.062740	0.035104	9.808776	-0.000504	-0.001640	-0.002231
00654	13036067	0.046581	0.052194	9.799023	-0.006660	-0.000712	0.001062
00655	13036117	0.054204	0.025019	9.815528	-0.007043	-0.000044	-0.002525
00656	13036167	0.039034	0.064361	9.809850	-0.002312	-0.001024	-0.002509
00657	13036217	0.061706	0.072625	9.812607	-0.005493	-0.000373	-0.001790
00658	13036267	0.043318	0.050862	9.822522	-0.006343	0.002066	-0.003441
00659	13036317	0.056817	0.047433	9.801374	-0.003641	0.000799	0.000934
00660	13036367	0.050122	0.045613	9.808353	-0.001709	0.002412	-0.000374
00661	13036417	0.049014	0.061917	9.824892	-0.003026	0.003845	0.002006
00662	13036467	0.055033	0.044531	9.827979	-0.006203	0.002813	-0.001675
00663	13036517	0.045731	0.050353	9.815799	-0.003863	0.000726	-0.001051
00664	13036567	0.056994	0.052907	9.810958	-0.004270	-0.001440	0.001273
00665	13036617	0.030121	0.057156	9.796719	-0.002608	-0.001443	0.001274
00666	13036667	0.051509	0.052104	9.815784	-0.002944	-0.001201	-0.002190
00667	13036717	0.063456	0.042852	9.821709	-0.007059	-0.000593	-0.003426
00668	13036767	0.067972	0.060815	9.815204	-0.004489	0.002394	-0.001013
00669	13036817	0.050346	0.042773	9.811228	-0.008162	0.002167	-0.001451
00670	13036867	0.078016	0.040834	9.822111	-0.000434	0.001363	-0.001639
00671	13036917	0.064585	0.028327	9.812834	-0.005703	0.002043	-0.004217
00672	13036967	0.067712	0.043230	9.820493	-0.003629	0.000505	-0.000320
00673	13037017	0.059010	0.045824	9.839951	-0.005846	-0.001344	-0.001320
00674	13037067	0.073898	0.049465	9.802477	-0.005423	0.003405	-0.003761
00675	13037117	0.064415	0.051518	9.802757	-0.003966	0.001885	-0.000376
00676	13037167	0.058605	0.064509	9.815263	-0.002991	0.003284	-0.004569
00677	13037217	0.046687	0.031671	9.813649	-0.003104	0.002164	0.000743
00678	13037267	0.052936	0.030788	9.796595	-0.005756	0.004251	0.001664
00679	13037317	0.054508	0.036458	9.816478	-0.004270	0.001232	-0.002300
00680	13037367	0.041990	0.052063	9.814384	-0.002126	0.000136	-0.003431
00681	13037417	0.058498	0.044664	9.804000	-0.005949	0.002209	0.001367
00682	13037467	0.055473	0.040931	9.809288	-0.000345	0.000563	-0.001868
00683	13037517	0.072618	0.021537	9.802014	-0.001971	0.002535	-0.000925
00684	13037567	0.050827	0.044605	9.809072	-0.004175	0.001397	-0.000887
00685	13037617	0.051879	0.055032	9.807622	-0.005287	0.003348	-0.001452
00686	13037667	0.036515	0.060602	9.812969	0.000843	0.003875	-0.000056
00687	13037717	0.058927	0.043767	9.810955	-0.002829	0.001355	-0.001982
00688	13037767	0.051486	0.048017	9.817932	-0.004738	0.001802	-0.002871
00689	13037817	0.058069	0.037254	9.806149	-0.007405	0.002535	-0.001834
00690	13037867	0.070025	0.038899	9.812572	-0.001972	0.000367	-0.002280
00691	13037917	0.048052	0.061105	9.829690	-0.002181	0.005108	-0.002892
00692	13037967	0.043123	0.053499	9.809582	-0.004427	0.002424	-0.001393
00693	13038017	0.073913	0.041476	9.831005	-0.002797	-0.001575	0.001138
00694	13038067	0.054079	0.023658	9.823682	-0.002286	0.003861	0.002643
00695	13038117	0.053363	0.054534	9.796829	-0.002704	0.004555	-0.002059
00696	13038167	0.062042	0.038015	9.796795	-0.005194	-0.003112	-0.004019
00697	13038217	0.038901	0.051497	9.800262	-0.003623	0.002243	-0.000565
00698	13038267	0.039205	0.064917	9.802415	-0.003266	0.001389	0.001770
00699	13038317	0.058344	0.055118	9.810950	-0.003723	0.000440	0.000483
00700	13038367	0.046819	0.047589	9.802617	-0.001346	0.003260	0.000107
00701	13038417	0.065019	0.047853	9.822895	-0.005156	0.001351	0.001454
00702	13038467	0.054214	0.055231	9.819598	-0.002202	0.001848	-0.001662
00703	13038517	0.060457	0.054430	9.823163	-0.005605	-0.000086	-0.003712
00704	13038567	0.055303	0.032784	9.810961	-0.002643	0.000685	0.000099
00705	13038617	0.048332	0.051080	9.818427	-0.003718	0.000782	-0.005410
00706	13038667	0.050974	0.057312	9.811218	-0.005651	0.000726	-0.000631
00707	13038717	0.043347	0.057769	9.808151	-0.003177	0.000761	-0.006948
00708	13038767	0.045484	0.062928	9.816279	-0.003500	0.004671	-0.000423
00709	13038817	0.028919	0.050059	9.796000	-0.002861	0.002615	0.000752
00710	13038867	0.043348	0.046527	9.782990	-0.005192	0.001084	-0.002844
00711	13038917	0.052452	0.048406	9.822239	-0.005173	0.000241	-0.004641
00712	13038967	0.069772	0.038073	9.819759	-0.002834	0.004617	-0.001325
00713	13039017	0.048697	0.048983	9.809083	-0.000448	0.001045	0.000767
00714	13039067	0.050001	0.045938	9.815545	-0.002404	0.003599	0.003637
00715	13039117	0.069349	0.035038	9.813050	-0.004681	0.001127	-0.002269
00716	13039167	0.068389	0.039625	9.819767	-0.006362	0.003073	0.000662
00717	13039217	0.040984	0.041505	9.803134	-0.001796	-0.000142	-0.001701
00718	13039267	0.039922	0.042468	9.808407	-0.007852	0.002297	-0.003727
00719	13039317	0.055738	0.039268	9.802090	-0.005467	0.000992	0.000938
00720	13039367	0.060626	0.039752	9.813816	0.001401	0.002507	0.003783
00721	13039417	0.049459	0.048185	9.824417	-0.002049	0.002983	-0.001048
00722	13039467	0.061178	0.034506	9.814293	-0.002296	0.001951	0.001255
00723	13039517	0.053695	0.029326	9.800429	-0.004654	0.002322	-0.002294
00724	13039567	0.052223	0.049230	9.803553	-0.002970	0.002068	0.001260
00725	13039617	0.050255	0.049571	9.808596	-0.001734	0.003250	-0.000244
00726	13039667	0.063714	0.048188	9.802533	-0.002930	0.001384	-0.001791
00727	13039717	0.070342	0.059817	9.804413	-0.004392	0.005462	-0.000707
00728	13039767	0.052275	0.030206	9.794688	-0.001175	0.001777	0.001511
00729	13039817	0.046202	0.060325	9.811244	-0.005981	-0.000281	-0.001753
00730	13039867	0.060156	0.045115	9.811662	-0.003812	0.002242	0.000015
00731	13039917	0.054184	0.049887	9.789871	-0.005567	0.003944	-0.002404
00732	13039967	0.060289	0.051193	9.816689	-0.005776	0.000359	-0.003163
00733	13040017	0.045590	0.057276	9.789446	-0.000503	0.000752	0.000998
00734	13040067	0.064671	0.031926	9.805168	-0.006299	0.000540	-0.002899
00735	13040117	0.059914	0.065371	9.804707	-0.005833	0.001458	0.000341
00736	13040167	0.062632	0.053110	9.808530	-0.003494	0.002941	-0.005268
00737	13040217	0.053024	0.059347	9.816244	0.000124	0.002243	-0.000407
00738	13040267	0.047668	0.038376	9.802378	-0.001128	0.000218	-0.000189
00739	13040317	0.068491	0.043707	9.804185	-0.004510	0.001868	-0.001426
00740	13040367	0.055488	0.048826	9.815272	-0.003769	0.003915	0.000155
00741	13040417	0.053573	0.036004	9.811692	-0.005152	0.001790	-0.003118
00742	13040467	0.051908	0.051330	9.818406	-0.006022	0.001001	-0.003635
00743	13040517	0.050036	0.070207	9.808345	-0.004566	-0.000293	0.000138
00744	13040567	0.036311	0.069956	9.801219	-0.003137	0.000990	-0.001749
00745	13040617	0.041350	0.061370	9.817980	-0.006428	0.001191	0.000664
00746	13040667	0.051491	0.055232	9.824404	-0.006393	0.003100	0.000542
00747	13040717	0.056221	0.045459	9.814790	-0.005950	0.003236	0.000092
00748	13040767	0.058208	0.058245	9.816690	-0.006684	0.002796	-0.002822
00749	13040817	0.053163	0.057936	9.808577	-0.004976	-0.000560	-0.001080
00750	13040867	0.039999	0.037453	9.788754	-0.003441	0.005830	-0.000058
00751	13040917	0.050708	0.028302	9.819619	-0.003357	0.003756	-0.004173
00752	13040967	0.056788	0.043914	9.804001	-0.008140	0.002380	-0.003431
00753	13041017	0.071112	0.031064	9.809449	-0.003803	-0.000411	-0.002178
00754	13041067	0.032674	0.046482	9.821142	-0.006329	0.001038	0.001718
00755	13041117	0.050869	0.051184	9.795408	-0.004636	0.002031	-0.000142
00756	13041167	0.046093	0.061131	9.810530	-0.003013	0.002122	-0.002193
00757	13041217	0.047707	0.049798	9.810999	-0.002686	-0.000163	-0.001373
00758	13041267	0.056241	0.053227	9.807364	-0.004725	0.000542	-0.001875
00759	13041317	0.055781	0.030965	9.824869	-0.000900	-0.000939	0.000478
00760	13041367	0.052634	0.058365	9.804986	-0.005296	0.000665	0.000945
00761	13041417	0.053925	0.052544	9.806663	-0.001737	-0.000994	-0.004075
00762	13041467	0.063010	0.037393	9.806370	-0.005883	0.005911	-0.001527
00763	13041517	0.060158	0.035039	9.820534	-0.002642	0.004482	-0.003050
00764	13041567	0.064494	0.056304	9.810190	-0.006391	0.002541	-0.003465
00765	13041617	0.039884	0.051867	9.837644	-0.004056	0.000745	-0.002165
00766	13041667	0.049418	0.057358	9.794926	-0.005210	0.007317	0.001012
00767	13041717	0.057405	0.044571	9.802092	-0.004211	-0.000351	-0.000123
00768	13041767	0.044514	0.049667	9.826110	-0.005910	0.001582	-0.003596
00769	13041817	0.076842	0.039018	9.820921	-0.005925	0.000933	-0.003445
00770	13041867	0.048894	0.044082	9.808597	-0.003998	0.004009	-0.002084
00771	13041917	0.056721	0.052421	9.797050	-0.003818	0.003135	-0.004303
00772	13041967	0.059159	0.037397	9.817657	-0.005995	0.003458	-0.001088
00773	13042017	0.050654	0.041164	9.818658	-0.000460	-0.000572	0.001243
00774	13042067	0.053476	0.060720	9.812407	-0.003026	0.002442	-0.002608
00775	13042117	0.044175	0.046415	9.808140	-0.003434	0.001945	-0.004532
00776	13042167	0.046071	0.051213	9.832342	-0.007211	0.002402	-0.003368
00777	13042217	0.062005	0.049773	9.800380	-0.006724	0.002054	-0.001770
00778	13042267	0.055598	0.053133	9.797300	-0.004654	0.000284	-0.000857
00779	13042317	0.055283	0.039180	9.796582	-0.003821	0.002460	-0.001260
00780	13042367	0.039124	0.056685	9.806010	-0.001513	-0.000090	-0.004740
00781	13042417	0.058672	0.054209	9.794170	-0.002696	0.001092	-0.002875
00782	13042467	0.054900	0.046637	9.804729	-0.003088	0.002507	-0.001198
00783	13042517	0.058356	0.040892	9.793447	-0.004386	0.002232	0.000822
00784	13042567	0.064148	0.046342	9.818590	-0.003083	0.000280	-0.000887
00785	13042617	0.055158	0.038355	9.817915	-0.002624	0.002870	-0.002445
00786	13042667	0.049258	0.039159	9.805725	-0.002936	0.001705	-0.001044
00787	13042717	0.070561	0.024990	9.820477	-0.004113	0.002590	-0.000045
00788	13042767	0.052921	0.051053	9.821280	-0.004670	-0.000236	-0.003166
00789	13042817	0.054684	0.058013	9.818636	-0.003365	0.001015	-0.003291
00790	13042867	0.042832	0.040932	9.794011	-0.004648	0.004188	-0.002691
00791	13042917	0.045436	0.040371	9.801428	-0.004781	0.001445	-0.001586
00792	13042967	0.048669	0.053150	9.799015	0.001842	0.001404	-0.000414
00793	13043017	0.045386	0.039770	9.806932	-0.006253	0.003583	-0.001024
00794	13043067	0.044577	0.058797	9.799754	-0.008821	-0.000273	-0.000721
00795	13043117	0.055422	0.037803	9.825829	-0.003739	-0.001181	-0.000320
00796	13043167	0.060535	0.046794	9.812137	-0.003949	0.003326	-0.002701
00797	13043217	0.053557	0.058867	9.812164	-0.001508	0.000212	0.000867
00798	13043267	0.060664	0.043458	9.816215	-0.002631	-0.000976	-0.001731
00799	13043317	0.068772	0.046899	9.811139	-0.005185	-0.003181	-0.001962
00800	13043367	0.052613	0.055075	9.816967	-0.007693	0.001426	-0.000516
00801	13043417	0.045593	0.068377	9.801665	-0.004521	0.001222	-0.002167
00802	13043467	0.073644	0.046458	9.815420	-0.003110	0.002252	0.000048
00803	13043517	0.056991	0.057025	9.789859	-0.006264	0.002905	0.000317
00804	13043567	0.039487	0.045278	9.820385	-0.003175	0.005282	-0.003105
00805	13043617	0.065610	0.053175	9.796534	-0.003736	0.000919	0.000043
00806	13043667	0.060437	0.054141	9.798956	-0.003847	-0.001322	-0.004362
00807	13043717	0.055054	0.045051	9.828461	-0.005447	0.000012	-0.002967
00808	13043767	0.054124	0.041755	9.793003	-0.005109	0.000500	-0.002361
00809	13043817	0.053580	0.045308	9.790359	-0.006946	0.001919	-0.002925
00810	13043867	0.058904	0.044603	9.816213	-0.002271	0.002070	-0.000114
00811	13043917	0.058282	0.051124	9.805439	-0.004791	-0.001560	-0.001664
00812	13043967	0.051265	0.049239	9.808825	-0.005803	0.001459	-0.000938
00813	13044017	0.066420	0.054036	9.799163	-0.003385	0.005220	0.002726
00814	13044067	0.049364	0.052954	9.816993	-0.004750	-0.002559	-0.000005
00815	13044117	0.047366	0.043992	9.811725	-0.005630	-0.000923	0.000745
00816	13044167	0.061611	0.040680	9.809254	-0.005447	0.000009	-0.003547
00817	13044217	0.062235	0.041419	9.795109	-0.004527	-0.000453	0.000137
00818	13044267	0.056789	0.038257	9.789385	-0.005909	0.000519	-0.002038
00819	13044317	0.062175	0.039769	9.802063	-0.006597	0.001121	-0.001965
00820	13044367	0.051590	0.044190	9.809062	-0.002057	0.002463	-0.000176
00821	13044417	0.064219	0.042703	9.807560	-0.001542	0.001182	-0.001439
00822	13044467	0.053436	0.045809	9.805941	-0.005954	0.003300	0.000734
00823	13044517	0.049169	0.051548	9.799247	-0.004762	0.002401	-0.005941
00824	13044567	0.042733	0.038645	9.818695	-0.004761	0.002767	-0.002796
00825	13044617	0.061037	0.046410	9.809736	-0.001603	0.001883	-0.004413
00826	13044667	0.051412	0.068168	9.816250	-0.006618	0.002059	-0.000455
00827	13044717	0.037610	0.065653	9.802182	-0.003152	0.001439	-0.000593
00828	13044767	0.059387	0.047818	9.821255	-0.004840	-0.001914	-0.001954
00829	13044817	0.044497	0.053575	9.817962	-0.006265	0.000706	-0.002482
00830	13044867	0.061608	0.032933	9.816202	-0.006790	0.004381	0.000390
00831	13044917	0.055539	0.043512	9.805453	-0.005613	-0.001831	-0.002563
00832	13044967	0.040668	0.062663	9.799523	-0.002684	0.002134	0.001363
00833	13045017	0.046509	0.051372	9.804298	-0.008030	0.001033	-0.001705
00834	13045067	0.035285	0.056689	9.803873	-0.000194	0.001109	-0.000764
00835	13045117	0.041607	0.046727	9.801687	-0.004775	0.000987	-0.004055
00836	13045167	0.056142	0.066251	9.794177	-0.003052	0.002313	-0.001583
00837	13045217	0.066662	0.045198	9.799643	-0.003447	-0.000308	-0.000990
00838	13045267	0.048847	0.040731	9.797343	-0.003181	0.000244	-0.002814
00839	13045317	0.056073	0.065524	9.813114	-0.008944	0.001202	-0.005097
00840	13045367	0.062594	0.032111	9.812124	-0.003783	0.003239	-0.001164
00841	13045417	0.041985	0.054934	9.805272	-0.004606	0.000997	0.000531
00842	13045467	0.044455	0.058754	9.821085	-0.005773	0.000462	0.000272
00843	13045517	0.064802	0.037850	9.798453	-0.004309	0.001777	-0.001235
00844	13045567	0.048388	0.031456	9.801654	-0.001565	0.005118	-0.000321
00845	13045617	0.045048	0.059333	9.804301	-0.002982	0.001052	-0.002395
00846	13045667	0.052495	0.064311	9.810493	-0.003889	0.002657	-0.000490
00847	13045717	0.038969	0.061735	9.811287	-0.002631	0.000260	0.000390
00848	13045767	0.062650	0.029516	9.817878	-0.001113	0.002803	-0.001013
00849	13045817	0.053512	0.047595	9.790841	-0.001606	0.002313	0.000721
00850	13045867	0.047049	0.049828	9.805013	-0.006147	0.000033	-0.001557
00851	13045917	0.041237	0.044125	9.799779	-0.004126	-0.001321	-0.002500
00852	13045967	0.041767	0.051991	9.799049	-0.004055	0.002044	0.002136
00853	13046017	0.031050	0.076600	9.792377	-0.005607	0.000238	-0.000725
00854	13046067	0.037269	0.053099	9.803388	-0.000776	-0.000778	0.000831
00855	13046117	0.066044	0.047176	9.809948	-0.002114	0.001208	0.001513
00856	13046167	0.068186	0.026384	9.800596	-0.004315	0.004676	-0.004390
00857	13046217	0.039327	0.048939	9.809838	-0.004619	0.002319	-0.000776
00858	13046267	0.038706	0.042326	9.808416	-0.002500	0.002065	-0.000976
00859	13046317	0.052719	0.054230	9.805222	-0.002917	0.000054	-0.002175
00860	13046367	0.060081	0.047404	9.809741	-0.000954	0.001703	-0.002301
00861	13046417	0.070357	0.046582	9.814246	-0.005843	-0.000577	-0.002845
00862	13046467	0.047604	0.047871	9.792069	-0.006343	0.001453	0.000567
00863	13046517	0.055005	0.058767	9.798260	-0.006758	0.002252	-0.000104
00864	13046567	0.039226	0.043949	9.803610	-0.007898	0.002970	-0.000250
00865	13046617	0.038471	0.053097	9.807214	-0.000398	0.000029	-0.004621
00866	13046667	0.052490	0.052485	9.791563	-0.004079	0.002588	-0.001583
00867	13046717	0.053988	0.050904	9.825112	-0.000783	0.003647	0.000402
00868	13046767	0.057021	0.038718	9.793702	-0.004999	-0.000888	-0.001889
00869	13046817	0.068465	0.037058	9.821923	-0.004044	0.001493	-0.000624
00870	13046867	0.044671	0.058774	9.790646	-0.004689	-0.000522	0.000327
00871	13046917	0.050496	0.040791	9.799009	-0.001254	0.000283	-0.000705
00872	13046967	0.042106	0.042783	9.810318	-0.005011	-0.000563	-0.002558
00873	13047017	0.062210	0.044773	9.822197	-0.003970	0.000942	-0.002518
00874	13047067	0.052857	0.052909	9.808815	-0.004980	0.003700	-0.002275
00875	13047117	0.036811	0.055241	9.817286	-0.003170	0.002723	-0.005748
00876	13047167	0.045202	0.053876	9.814127	-0.006456	0.002472	-0.005482
00877	13047217	0.068772	0.046751	9.807304	-0.005565	-0.000954	0.000679
00878	13047267	0.069947	0.040728	9.815688	-0.002410	0.001396	0.000873
00879	13047317	0.056601	0.038804	9.803528	-0.004987	0.004925	-0.000638
00880	13047367	0.054374	0.033012	9.806900	-0.005603	0.000140	-0.000467
00881	13047417	0.056411	0.058926	9.807120	-0.005089	-0.000048	-0.001401
00882	13047467	0.046787	0.041995	9.820841	-0.002792	0.001324	-0.000180
00883	13047517	0.057445	0.034015	9.811440	-0.001127	-0.001207	-0.002927
00884	13047567	0.055270	0.039621	9.796823	-0.002484	0.002484	-0.002772
00885	13047617	0.043002	0.065801	9.813419	-0.004269	0.000092	-0.003609
00886	13047667	0.047046	0.041599	9.797595	-0.005157	-0.002110	-0.001247
00887	13047717	0.037383	0.057797	9.803624	-0.003865	0.001114	0.002418
00888	13047767	0.068918	0.044896	9.806822	-0.004980	0.002097	0.002777
00889	13047817	0.039783	0.052708	9.811280	-0.004710	0.003254	-0.000419
00890	13047867	0.036763	0.050892	9.802905	-0.005035	0.001508	-0.000042
00891	13047917	0.076987	0.033220	9.811332	-0.005905	0.000424	-0.001459
00892	13047967	0.034437	0.052712	9.828085	-0.001220	0.000860	-0.003745
00893	13048017	0.046360	0.057119	9.808131	-0.005224	0.003603	0.000577
00894	13048067	0.056192	0.044917	9.790110	-0.004996	0.003019	-0.002568
00895	13048117	0.027790	0.057049	9.811337	-0.006408	0.003187	-0.004355
00896	13048167	0.040577	0.073280	9.802885	-0.003119	-0.000758	-0.003362
00897	13048217	0.046386	0.063408	9.801661	-0.002564	0.000001	-0.001951
00898	13048267	0.054087	0.046888	9.814083	-0.007157	0.002890	-0.000034
00899	13048317	0.038867	0.066174	9.813679	-0.005022	0.002091	0.000988
00900	13048367	0.049568	0.051339	9.804513	-0.003237	0.002147	-0.001105
00901	13048417	0.053268	0.035211	9.819118	-0.005100	0.002176	-0.002575
00902	13048467	0.070041	0.037041	9.805861	-0.003535	0.001537	0.000176
00903	13048517	0.055208	0.043880	9.798981	-0.002374	0.003326	-0.000496
00904	13048567	0.050493	0.055087	9.802353	-0.005878	0.003781	-0.000478
00905	13048617	0.053259	0.052258	9.788919	-0.005694	0.002077	0.001209
00906	13048667	0.036095	0.047242	9.796678	-0.003622	0.003505	0.001084
00907	13048717	0.038473	0.051931	9.803863	-0.003164	-0.001178	-0.001317
00908	13048767	0.058173	0.049698	9.805436	-0.004922	0.001930	-0.000109
00909	13048817	0.062512	0.051739	9.815000	-0.005894	-0.001897	-0.000413
00910	13048867	0.044214	0.059565	9.821081	-0.001451	-0.000687	-0.000515
00911	13048917	0.057038	0.060619	9.816938	-0.005793	0.003072	-0.002054
00912	13048967	0.062032	0.061500	9.814521	-0.002451	0.003515	-0.003119
00913	13049017	0.053158	0.040007	9.830869	-0.003460	0.004247	-0.001540
00914	13049067	0.047167	0.050861	9.814601	-0.004730	0.000899	-0.001268
00915	13049117	0.059606	0.041841	9.807344	-0.006484	0.005803	-0.001364
00916	13049167	0.048676	0.053900	9.805965	-0.002176	-0.001192	-0.001601
00917	13049217	0.048314	0.050485	9.793988	-0.003684	-0.001319	-0.004519
00918	13049267	0.053856	0.046727	9.813848	-0.004195	0.001867	-0.005111
00919	13049317	0.039389	0.050533	9.804333	-0.001688	0.001729	-0.001976
00920	13049367	0.065361	0.046909	9.816181	-0.001401	0.000091	0.002532
00921	13049417	0.054380	0.045689	9.816716	-0.004800	0.000093	0.000300
00922	13049467	0.057554	0.048135	9.817418	-0.003208	0.004379	-0.001733
00923	13049517	0.038175	0.051663	9.815367	-0.004619	-0.000814	-0.001372
00924	13049567	0.053480	0.048348	9.801627	-0.002506	0.002852	0.004442
00925	13049617	0.045191	0.035744	9.825156	-0.005727	0.001910	-0.002252
00926	13049667	0.052144	0.039475	9.835429	-0.004364	0.003555	0.000059
00927	13049717	0.030592	0.041699	9.821389	-0.007639	0.001877	-0.000802
00928	13049767	0.044467	0.043170	9.804305	-0.003444	0.003564	-0.003400
00929	13049817	0.079861	0.037827	9.795747	-0.003418	0.000693	-0.001116
00930	13049867	0.062615	0.041451	9.808299	-0.003137	-0.000781	0.002436
00931	13049917	0.049614	0.050328	9.804750	-0.005800	0.001290	-0.000463
00932	13049967	0.064947	0.032297	9.787915	-0.001201	0.001701	0.000486
00933	13050017	0.050108	0.050196	9.802122	-0.001563	0.001982	-0.000217
00934	13050067	0.061345	0.056284	9.820991	-0.008915	0.001723	-0.000644
00935	13050117	0.051848	0.059356	9.810744	-0.002636	0.000449	0.000098
00936	13050167	0.032441	0.057636	9.793818	-0.005563	-0.000215	-0.000309
00937	13050217	0.059126	0.039881	9.818373	-0.002725	0.004355	0.000220
00938	13050267	0.052304	0.054527	9.831351	-0.000995	0.001086	-0.000829
00939	13050317	0.069183	0.042473	9.805140	-0.004740	0.003985	-0.004461
00940	13050367	0.041459	0.052653	9.800489	-0.005277	0.002147	0.001081
00941	13050417	0.058791	0.042583	9.823645	-0.002173	0.005071	0.000319
00942	13050467	0.055614	0.055629	9.784113	-0.007158	0.001790	0.000697
00943	13050517	0.025863	0.074850	9.792895	-0.003590	-0.001030	-0.002694
00944	13050567	0.064593	0.032662	9.807799	-0.004667	0.001860	-0.001588
00945	13050617	0.057111	0.040332	9.804011	-0.001745	0.001727	0.001549
00946	13050667	0.053999	0.051799	9.825111	-0.001180	0.001862	-0.000312
00947	13050717	0.048694	0.041342	9.819868	-0.002888	0.000511	0.002347
00948	13050767	0.066450	0.032773	9.806589	-0.003091	0.004336	-0.004847
00949	13050817	0.054453	0.055815	9.802582	-0.006355	-0.001495	-0.002176
00950	13050867	0.063125	0.035385	9.805415	-0.002775	0.001505	-0.001755
00951	13050917	0.038015	0.041899	9.806014	-0.002001	0.002556	-0.001590
00952	13050967	0.044477	0.050933	9.788723	-0.005455	0.000463	0.000110
00953	13051017	0.061621	0.024579	9.804706	-0.005756	0.001875	-0.002066
00954	13051067	0.074583	0.042783	9.827402	-0.000536	0.000838	-0.000291
00955	13051117	0.073188	0.044470	9.801527	-0.003739	0.006010	0.000035
00956	13051167	0.059166	0.026837	9.813819	-0.002955	0.002280	-0.001682
00957	13051217	0.043921	0.044927	9.813179	-0.003456	0.001342	0.002801
00958	13051267	0.060596	0.051432	9.815258	-0.006194	-0.003359	0.000663
00959	13051317	0.058630	0.050540	9.812625	-0.005163	0.001238	-0.002101
00960	13051367	0.036540	0.052433	9.802193	-0.000454	0.000197	0.000253
00961	13051417	0.054614	0.046998	9.816483	-0.001480	0.000815	-0.005223
00962	13051467	0.078928	0.036229	9.823069	-0.002892	0.000378	-0.000253
00963	13051517	0.053420	0.051185	9.814087	-0.004605	0.000764	-0.001588
00964	13051567	0.053165	0.033277	9.800426	-0.006828	0.003306	-0.002886
00965	13051617	0.061727	0.038311	9.809501	-0.005054	-0.001079	-0.000896
00966	13051667	0.037948	0.058994	9.806263	-0.001288	-0.002053	-0.003153
00967	13051717	0.037761	0.045328	9.814648	-0.004284	0.001031	0.000812
00968	13051767	0.052457	0.048676	9.821529	-0.004532	-0.001167	0.001764
00969	13051817	0.045428	0.060433	9.817721	-0.007899	-0.000903	0.001328
00970	13051867	0.056094	0.051163	9.805447	-0.000796	0.000025	0.000353
00971	13051917	0.044992	0.050170	9.811007	-0.004565	0.004800	-0.001985
00972	13051967	0.055513	0.051402	9.812645	-0.007214	-0.000408	0.000714
00973	13052017	0.045650	0.058314	9.818678	-0.006808	0.000563	-0.002479
00974	13052067	0.053333	0.048719	9.793722	-0.001979	-0.000449	-0.002313
00975	13052117	0.069493	0.027052	9.806821	-0.002822	-0.000972	0.000026
00976	13052167	0.045402	0.040114	9.807425	-0.002059	0.003755	0.002743
00977	13052217	0.057483	0.036433	9.807115	-0.003913	0.006428	-0.001309
00978	13052267	0.057733	0.038218	9.792502	-0.006382	0.000349	0.000078
00979	13052317	0.058810	0.057057	9.805664	-0.004861	0.003121	0.000025
00980	13052367	0.065418	0.042190	9.808760	-0.004227	0.000962	-0.002618
00981	13052417	0.059840	0.044695	9.828681	-0.001197	0.001707	0.001735
00982	13052467	0.062458	0.045133	9.815956	-0.001799	0.002268	-0.000346
00983	13052517	0.063015	0.041757	9.829618	-0.008734	-0.000988	-0.001270
00984	13052567	0.071314	0.046968	9.808965	-0.004881	0.000306	-0.001980
00985	13052617	0.066909	0.036503	9.807549	-0.005762	0.001707	-0.004403
00986	13052667	0.049950	0.039420	9.809074	-0.003070	0.001792	-0.002071
00987	13052717	0.035241	0.039605	9.800521	-0.001331	0.001600	-0.000923
00988	13052767	0.040735	0.053462	9.816788	-0.007967	-0.000037	-0.000749
00989	13052817	0.056085	0.042062	9.808798	-0.004665	0.003535	-0.004074
00990	13052867	0.069146	0.036621	9.803468	-0.002620	-0.000134	0.000226
00991	13052917	0.066321	0.054199	9.795807	-0.007124	0.001626	-0.000461
00992	13052967	0.047433	0.053135	9.800220	-0.008368	0.003405	-0.003970
00993	13053017	0.049446	0.044515	9.813151	-0.004531	0.000374	-0.003232
00994	13053067	0.063781	0.042462	9.803975	-0.002628	0.000731	-0.004739
00995	13053117	0.070089	0.047278	9.816890	-0.005695	-0.000995	-0.000061
00996	13053167	0.052072	0.053568	9.809060	-0.006093	0.006780	0.000304
00997	13053217	0.064873	0.043527	9.809484	-0.005126	0.002207	-0.001457
00998	13053267	0.069874	0.042054	9.813284	-0.008389	0.002951	-0.004808
00999	13053317	0.055766	0.055880	9.806645	-0.004533	0.001802	0.000178
01000	13053367	0.060517	0.051245	9.788168	-0.002516	-0.001554	-0.001223
01001	13053417	0.050312	0.062782	9.814342	-0.002472	0.003323	-0.001035
01002	13053467	0.061495	0.054336	9.816686	-0.004308	-0.001650	-0.001029
01003	13053517	0.036325	0.044154	9.814418	-0.003314	0.001366	-0.002459
01004	13053567	0.065137	0.048470	9.816912	-0.002111	-0.001223	-0.000168
01005	13053617	0.044969	0.070734	9.813887	-0.006582	0.003897	-0.001054
01006	13053667	0.041911	0.059865	9.824925	-0.004739	0.004186	-0.001602
01007	13053717	0.043813	0.055987	9.818450	-0.003818	-0.001543	0.001217
01008	13053767	0.036626	0.056590	9.818010	-0.004898	0.000788	-0.003993
01009	13053817	0.061285	0.052597	9.806620	-0.004263	-0.000040	-0.003266
01010	13053867	0.057426	0.041445	9.823656	-0.001357	0.001378	0.000677
01011	13053917	0.059433	0.042790	9.814060	-0.003298	0.000651	-0.006180
01012	13053967	0.053033	0.036726	9.813368	-0.004068	0.003099	-0.002956
01013	13054017	0.051812	0.035358	9.788691	-0.005601	0.002008	-0.001454
01014	13054067	0.058235	0.041279	9.814779	-0.003697	0.001359	-0.002102
01015	13054117	0.054040	0.053517	9.816957	-0.004701	0.001121	0.000431
01016	13054167	0.051934	0.051408	9.817934	-0.002732	-0.000423	0.001956
01017	13054217	0.065634	0.049831	9.803240	-0.004638	0.000996	-0.000438
01018	13054267	0.054245	0.070185	9.787232	-0.002290	0.001483	-0.001660
01019	13054317	0.069413	0.045217	9.816642	-0.003853	0.001291	-0.002842
01020	13054367	0.047753	0.053645	9.801899	-0.004311	-0.000355	-0.001054
01021	13054417	0.039698	0.052628	9.816067	-0.007100	0.003279	0.001379
01022	13054467	0.029342	0.062978	9.800304	-0.003608	0.000684	-0.002393
01023	13054517	0.042964	0.058982	9.833072	-0.007094	-0.000477	-0.002937
01024	13054567	0.038603	0.063125	9.809611	-0.005440	-0.003888	0.002523
01025	13054617	0.051762	0.046660	9.812422	-0.004299	-0.000452	0.000676
01026	13054667	0.056527	0.049190	9.795146	-0.004914	0.004569	-0.001154
01027	13054717	0.053606	0.046484	9.814803	-0.003612	0.002849	-0.001778
01028	13054767	0.058921	0.049977	9.816221	-0.006690	-0.000244	-0.003032
01029	13054817	0.059604	0.067030	9.800386	-0.008983	0.004783	-0.003384
01030	13054867	0.062845	0.051728	9.795117	0.000304	-0.001930	-0.002802
01031	13054917	0.063899	0.030301	9.808285	-0.003580	0.001816	-0.001654
01032	13054967	0.056480	0.041393	9.796580	0.000808	-0.000495	-0.001741
01033	13055017	0.065958	0.033575	9.780717	-0.003115	-0.000020	-0.003428
01034	13055067	0.065355	0.049656	9.800126	-0.004461	0.002316	-0.002450
01035	13055117	0.047844	0.052148	9.811475	-0.003447	0.002655	-0.002638
01036	13055167	0.044780	0.064659	9.826105	-0.003728	0.003459	-0.002346
01037	13055217	0.062646	0.049327	9.817871	-0.003800	0.002585	-0.003475
01038	13055267	0.052128	0.064137	9.799714	-0.005410	0.002208	0.000278
01039	13055317	0.061008	0.035238	9.805425	-0.005178	0.000724	-0.001367
01040	13055367	0.039339	0.055581	9.791385	-0.004240	0.003482	-0.001930
01041	13055417	0.035401	0.063760	9.797161	-0.005503	0.003206	-0.000516
01042	13055467	0.062416	0.052840	9.805902	-0.002882	0.001121	0.001256
01043	13055517	0.050503	0.044901	9.800450	-0.007155	-0.001344	0.000552
01044	13055567	0.058929	0.044169	9.810699	-0.005358	0.002760	0.001112
01045	13055617	0.057815	0.042867	9.802558	-0.005136	0.001498	-0.001267
01046	13055667	0.050970	0.036374	9.804993	-0.003899	0.003580	-0.004813
01047	13055717	0.063595	0.040945	9.800133	-0.000884	0.001642	-0.000604
01048	13055767	0.046859	0.058479	9.800456	-0.000766	0.003965	-0.002065
01049	13055817	0.055655	0.051487	9.798018	-0.002584	-0.000393	-0.000834
01050	13055867	0.061202	0.041777	9.832750	-0.004072	0.002260	-0.002322
01051	13055917	0.044662	0.058500	9.811977	-0.002474	0.002259	-0.001747
01052	13055967	0.077099	0.041268	9.796955	-0.006107	0.003135	0.001693
01053	13056017	0.050903	0.057205	9.802353	-0.006999	0.001956	0.002170
01054	13056067	0.047366	0.044099	9.791342	-0.006434	0.002354	0.001339
01055	13056117	0.070267	0.041089	9.804177	-0.003593	-0.001927	-0.001192
01056	13056167	0.035366	0.058805	9.814893	-0.003082	0.002507	-0.000302
01057	13056217	0.039974	0.079114	9.805517	-0.004946	0.001497	-0.003089
01058	13056267	0.054556	0.076414	9.809764	-0.003961	0.000747	-0.001463
01059	13056317	0.061622	0.053430	9.797271	-0.003204	0.000044	-0.000959
01060	13056367	0.062871	0.041963	9.830104	-0.006481	0.001278	-0.003029
01061	13056417	0.046013	0.056590	9.828024	-0.005011	0.003693	-0.002278
01062	13056467	0.063752	0.041924	9.811880	-0.003685	0.001401	0.000843
01063	13056517	0.058095	0.064676	9.801369	-0.004917	-0.002400	0.000119
01064	13056567	0.058732	0.047275	9.806151	-0.007007	0.001051	0.000822
01065	13056617	0.041120	0.058705	9.807912	-0.005667	0.002266	-0.001261
01066	13056667	0.062405	0.048038	9.781690	-0.001967	0.001133	-0.002655
01067	13056717	0.045345	0.066270	9.811485	-0.004928	0.001951	-0.001489
01068	13056767	0.052480	0.045462	9.797554	-0.005364	0.003689	-0.001094
01069	13056817	0.061615	0.048396	9.804467	-0.002993	0.000502	0.000195
01070	13056867	0.070114	0.032445	9.799383	-0.003472	0.001597	0.000746
01071	13056917	0.065052	0.045641	9.828891	-0.004077	0.000324	0.000168
01072	13056967	0.040654	0.050725	9.820137	-0.004738	0.003186	-0.000967
01073	13057017	0.047027	0.053558	9.809808	-0.003383	-0.001438	-0.000997
01074	13057067	0.055396	0.065476	9.816954	-0.002173	-0.001292	-0.002188
01075	13057117	0.051209	0.052296	9.821531	-0.001819	0.000910	-0.000126
01076	13057167	0.047757	0.064191	9.811960	-0.004258	0.000092	-0.000986
01077	13057217	0.040134	0.045486	9.818236	-0.005192	-0.001123	-0.003938
01078	13057267	0.052608	0.045529	9.793965	-0.003549	0.000916	-0.000469
01079	13057317	0.034694	0.051200	9.797647	-0.003518	-0.000283	-0.003234
01080	13057367	0.045909	0.037947	9.815328	-0.006296	0.000703	-0.002999
01081	13057417	0.070375	0.036290	9.797949	-0.001542	0.001206	-0.001024
01082	13057467	0.058792	0.055313	9.829885	-0.002769	-0.002524	-0.000074
01083	13057517	0.078122	0.041983	9.796710	-0.005569	0.001071	0.000876
01084	13057567	0.072239	0.050775	9.807767	-0.006077	0.000931	-0.001465
01085	13057617	0.048501	0.056463	9.801414	-0.006361	-0.002529	-0.002214
01086	13057667	0.060033	0.051398	9.816687	-0.005629	0.000973	-0.001527
01087	13057717	0.055512	0.063902	9.805691	-0.003875	-0.003264	-0.003441
01088	13057767	0.049677	0.065000	9.801405	-0.008146	0.001872	0.001052
01089	13057817	0.040894	0.069042	9.813903	-0.006010	0.003035	0.000797
01090	13057867	0.030506	0.045308	9.821631	-0.004957	0.001919	-0.002287
01091	13057917	0.036269	0.068672	9.802660	-0.005268	0.003890	-0.000448
01092	13057967	0.043790	0.048022	9.828758	-0.001628	0.000853	-0.000475
01093	13058017	0.051154	0.040631	9.807391	-0.004338	0.001578	-0.001142
01094	13058067	0.070282	0.051783	9.803941	-0.005117	0.001685	-0.002868
01095	13058117	0.071628	0.050365	9.823341	-0.002416	0.002516	-0.001044
01096	13058167	0.060116	0.042096	9.807827	-0.003822	0.004326	-0.003948
01097	13058217	0.060520	0.042061	9.824833	-0.006063	0.003416	-0.003273
01098	13058267	0.086539	0.030856	9.804091	-0.004075	0.001458	0.001645
01099	13058317	0.045279	0.053603	9.815565	-0.007488	-0.000963	-0.000821
01100	13058367	0.047825	0.046760	9.822981	-0.003060	0.004029	0.002429
01101	13058417	0.064815	0.041367	9.812838	-0.003661	-0.003769	-0.000689
01102	13058467	0.048433	0.058290	9.794225	-0.003111	0.000181	-0.000986
01103	13058517	0.055358	0.048874	9.799937	-0.002994	0.002505	-0.001170
01104	13058567	0.052688	0.065103	9.790368	-0.003354	-0.001080	0.001635
01105	13058617	0.050449	0.059418	9.813144	-0.005683	-0.000552	-0.002781
01106	13058667	0.056766	0.048185	9.808798	-0.006030	0.000779	0.001810
01107	13058717	0.049507	0.063906	9.799968	-0.005274	-0.000311	-0.001691
01108	13058767	0.030823	0.067459	9.804607	-0.001811	0.002458	-0.003415
01109	13058817	0.051785	0.054897	9.822721	-0.001806	0.003590	0.000307
01110	13058867	0.060488	0.043061	9.794162	-0.003754	0.002203	-0.001234
01111	13058917	0.070800	0.051191	9.800344	-0.002491	0.002839	-0.000532
01112	13058967	0.047782	0.057171	9.800460	-0.004981	-0.001595	-0.002017
01113	13059017	0.046493	0.058476	9.793742	-0.005397	0.001755	0.000245
01114	13059067	0.055082	0.049302	9.796103	-0.004946	0.003532	-0.001994
01115	13059117	0.063623	0.045215	9.809244	-0.005169	0.004461	-0.003559
01116	13059167	0.040005	0.054475	9.808875	-0.004739	0.003920	-0.004073
01117	13059217	0.051395	0.049244	9.828954	-0.004998	0.001279	0.000911
01118	13059267	0.042749	0.050142	9.799996	-0.002278	0.001493	0.003055
01119	13059317	0.057428	0.053915	9.798007	-0.002861	0.003510	-0.000746
01120	13059367	0.049062	0.059101	9.801643	-0.006273	0.002122	-0.001644
01121	13059417	0.051120	0.048482	9.794207	-0.002028	0.002396	-0.001043
01122	13059467	0.055218	0.050715	9.798266	-0.004122	-0.000422	-0.002845
01123	13059517	0.059100	0.056109	9.793208	-0.003410	0.002262	-0.004727
01124	13059567	0.042386	0.057240	9.809114	-0.004976	0.000238	-0.003611
01125	13059617	0.048374	0.039205	9.803328	-0.002222	0.001063	-0.003741
01126	13059667	0.048235	0.053942	9.799264	-0.004340	-0.001519	-0.000898
01127	13059717	0.035961	0.047763	9.807471	-0.003558	-0.003325	-0.005235
01128	13059767	0.049500	0.049793	9.793017	-0.003850	-0.000063	-0.002749
01129	13059817	0.058553	0.054764	9.802311	-0.003869	0.003206	0.001816
01130	13059867	0.051033	0.056698	9.803791	-0.006094	0.000540	-0.000850
01131	13059917	0.050975	0.050358	9.807137	-0.002144	0.004058	-0.002313
01132	13059967	0.052564	0.067135	9.800664	-0.000865	0.000918	-0.001821
01133	13060017	0.070090	0.056395	9.831012	-0.004049	0.002969	0.001369
01134	13060067	0.056643	0.045594	9.806643	-0.007280	-0.002552	-0.001276
01135	13060117	0.059015	0.055126	9.811180	-0.003108	0.003103	-0.003569
01136	13060167	0.055520	0.057348	9.819829	-0.002398	-0.003104	0.000661
01137	13060217	0.052102	0.062530	9.805222	-0.001685	0.001518	-0.001621
01138	13060267	0.056260	0.049019	9.813596	-0.007991	0.000827	-0.000937
01139	13060317	0.046901	0.054817	9.815321	-0.005903	0.000539	-0.001328
01140	13060367	0.062642	0.045406	9.826262	-0.004771	0.003371	-0.001059
01141	13060417	0.057494	0.049683	9.804962	-0.006016	0.000215	-0.000433
01142	13060467	0.043876	0.048180	9.805991	-0.001935	0.003611	-0.001871
01143	13060517	0.066623	0.052470	9.784299	-0.004862	0.002979	-0.002663
01144	13060567	0.038877	0.050236	9.820873	-0.004604	-0.000014	-0.000370
01145	13060617	0.036397	0.045592	9.835754	-0.006165	0.000596	-0.003283
01146	13060667	0.041631	0.055021	9.812220	-0.007856	0.001801	-0.000065
01147	13060717	0.056485	0.063136	9.828691	-0.003127	-0.000414	-0.003200
01148	13060767	0.058120	0.052828	9.830118	-0.006708	-0.001605	-0.001912
01149	13060817	0.044808	0.067078	9.824677	-0.002969	-0.000183	-0.000794
01150	13060867	0.060121	0.052078	9.810225	-0.002367	-0.002333	-0.002477
01151	13060917	0.072928	0.040664	9.801049	-0.006524	0.000017	0.000113
01152	13060967	0.050505	0.051900	9.812907	-0.002748	0.000790	-0.001371
01153	13061017	0.046163	0.055254	9.784891	-0.005799	-0.000582	0.001678
01154	13061067	0.047027	0.056119	9.800222	-0.001428	0.000485	-0.002911
01155	13061117	0.030485	0.071706	9.793594	-0.001383	-0.002837	-0.000937
01156	13061167	0.054233	0.055256	9.810974	-0.003690	0.002488	-0.000266
01157	13061217	0.032243	0.067191	9.808917	-0.002411	0.000245	-0.002396
01158	13061267	0.071897	0.028582	9.834608	-0.002723	0.000279	0.001352
01159	13061317	0.050834	0.060199	9.827520	-0.003690	0.000389	0.000171
01160	13061367	0.061116	0.052095	9.825067	-0.002542	0.002371	-0.002708
01161	13061417	0.056709	0.053998	9.808320	-0.002465	0.001284	0.001713
01162	13061467	0.057164	0.053423	9.806874	-0.005519	0.002908	0.002403
01163	13061517	0.052735	0.046258	9.795153	-0.003403	0.005491	-0.003102
01164	13061567	0.045866	0.071085	9.794707	-0.003476	0.002714	-0.002346
01165	13061617	0.057859	0.053196	9.793458	-0.004239	-0.001661	-0.001664
01166	13061667	0.049396	0.058320	9.790383	-0.005209	-0.000252	-0.000051
01167	13061717	0.070079	0.046307	9.819757	-0.003827	0.001574	-0.002933
01168	13061767	0.063858	0.059871	9.809001	-0.004909	0.000563	0.000335
01169	13061817	0.054893	0.041577	9.804976	-0.004839	0.003436	-0.000418
01170	13061867	0.060166	0.061049	9.826032	-0.004223	-0.003013	-0.000227
01171	13061917	0.058424	0.065176	9.822214	-0.002208	0.000156	0.000906
01172	13061967	0.044411	0.042812	9.809338	-0.004441	0.003024	-0.000837
01173	13062017	0.054587	0.056728	9.809536	-0.003298	-0.003128	-0.001835
01174	13062067	0.044916	0.046698	9.809340	-0.003438	0.000355	-0.002457
01175	13062117	0.073910	0.028862	9.800086	-0.004769	0.004107	-0.002403
01176	13062167	0.066175	0.044475	9.797727	-0.003456	0.001873	-0.001936
01177	13062217	0.046056	0.039455	9.798080	-0.004447	-0.002210	-0.001409
01178	13062267	0.050912	0.066726	9.820568	-0.002985	0.003534	0.000028
01179	13062317	0.047671	0.056736	9.807403	-0.001793	0.002132	-0.001106
01180	13062367	0.072316	0.042945	9.804883	-0.006378	0.002271	-0.003244
01181	13062417	0.041791	0.064760	9.815346	-0.004366	0.000667	0.000693
01182	13062467	0.065228	0.037425	9.822664	-0.005570	-0.001805	0.001670
01183	13062517	0.063004	0.043132	9.817637	-0.004571	0.000754	-0.002971
01184	13062567	0.046275	0.030933	9.814608	-0.004429	-0.000525	0.000744
01185	13062617	0.053734	0.041484	9.816250	-0.002656	-0.000049	-0.002400
01186	13062667	0.066239	0.046769	9.804435	-0.002310	0.005219	-0.002148
01187	13062717	0.050961	0.050879	9.785588	-0.004997	-0.001062	-0.003487
01188	13062767	0.045963	0.047550	9.793989	-0.005434	0.000672	-0.003313
01189	13062817	0.065359	0.043805	9.820256	-0.008063	0.001283	0.000351
01190	13062867	0.074368	0.048711	9.795289	-0.002341	0.004052	-0.003567
01191	13062917	0.046797	0.059000	9.820829	-0.005698	0.002190	-0.001670
01192	13062967	0.055077	0.044792	9.823428	-0.008943	0.001582	-0.001635
01193	13063017	0.044809	0.050689	9.816766	-0.001227	0.000264	-0.002719
01194	13063067	0.043941	0.063314	9.822284	-0.004122	0.000154	0.001457
01195	13063117	0.055447	0.047516	9.820544	-0.004754	0.002893	0.001308
01196	13063167	0.065103	0.042076	9.782393	-0.004268	0.000408	-0.000468
01197	13063217	0.049587	0.057735	9.795170	-0.006700	0.002298	-0.003239
01198	13063267	0.066870	0.045248	9.794850	-0.003140	0.002438	0.002262
01199	13063317	0.051577	0.050399	9.805471	-0.004187	0.000890	-0.000979
01200	13063367	0.066780	0.071299	9.798919	-0.002298	0.000798	-0.001786
01201	13063417	0.061225	0.068712	9.819804	-0.003140	0.000301	0.000235
01202	13063467	0.044370	0.061263	9.828512	-0.005007	0.000329	-0.002481
01203	13063517	0.044163	0.073614	9.827547	-0.005978	0.003089	-0.000609
01204	13063567	0.065902	0.043314	9.837751	-0.005905	0.003570	-0.003621
01205	13063617	0.054485	0.062085	9.807134	-0.001104	0.000629	0.000265
01206	13063667	0.054963	0.047153	9.815043	-0.004106	-0.002851	-0.001767
01207	13063717	0.046706	0.056487	9.810770	-0.000343	0.000028	0.000931
01208	13063767	0.052417	0.044124	9.791319	-0.005519	0.001287	-0.003599
01209	13063817	0.050785	0.043724	9.805716	-0.004233	-0.003953	-0.001706
01210	13063867	0.052600	0.044734	9.802832	-0.003535	0.000356	-0.001468
01211	13063917	0.060587	0.045959	9.821005	-0.003965	0.000060	0.000073
01212	13063967	0.054238	0.059095	9.826545	-0.003570	-0.002421	-0.000648
01213	13064017	0.067658	0.052397	9.816410	-0.008462	0.000563	0.000281
01214	13064067	0.046660	0.065229	9.820582	-0.004346	0.003023	0.000221
01215	13064117	0.043399	0.040792	9.830917	-0.004924	0.002046	0.000245
01216	13064167	0.051389	0.045799	9.808112	-0.004473	-0.001438	-0.002208
01217	13064217	0.046075	0.069068	9.829932	-0.005845	0.003802	-0.001437
01218	13064267	0.063319	0.039010	9.794387	-0.005569	0.003225	-0.000996
01219	13064317	0.073178	0.034779	9.806083	-0.002446	0.001444	-0.001013
01220	13064367	0.039991	0.045373	9.799060	-0.002269	-0.000140	-0.002333
01221	13064417	0.044614	0.050114	9.800468	-0.003752	0.002420	-0.000715
01222	13064467	0.073264	0.039088	9.814707	-0.003444	0.002620	-0.001069
01223	13064517	0.030431	0.059511	9.805806	-0.006469	0.002307	-0.002147
01224	13064567	0.043766	0.057082	9.805987	-0.003921	0.002608	-0.000968
01225	13064617	0.031305	0.066727	9.805331	-0.001776	0.002350	-0.004660
01226	13064667	0.065042	0.023874	9.824337	-0.004693	0.003591	-0.002825
01227	13064717	0.058878	0.035876	9.808315	-0.005986	0.000823	-0.004626
01228	13064767	0.069446	0.044817	9.789325	-0.008613	-0.001929	-0.001878
01229	13064817	0.081407	0.040985	9.802680	-0.005569	0.001625	0.005406
01230	13064867	0.063494	0.046368	9.798934	-0.004358	0.002410	-0.000364
01231	13064917	0.056025	0.057095	9.798492	-0.006195	0.000699	-0.001422
01232	13064967	0.066761	0.053535	9.799636	-0.003351	0.001749	-0.000047
01233	13065017	0.033269	0.068620	9.794292	-0.001954	0.002157	-0.001840
01234	13065067	0.045569	0.050536	9.803344	-0.007766	0.000568	-0.003888
01235	13065117	0.044933	0.061122	9.806450	-0.005448	0.002157	-0.003756
01236	13065167	0.059700	0.061036	9.813578	-0.001232	0.002328	-0.003669
01237	13065217	0.052893	0.045425	9.829672	-0.006919	0.000135	-0.002514
01238	13065267	0.066190	0.032210	9.820740	-0.005959	0.001249	-0.000842
01239	13065317	0.068259	0.035103	9.824083	-0.003532	0.002523	-0.000398
01240	13065367	0.057290	0.058109	9.803527	-0.001445	-0.003997	-0.000852
01241	13065417	0.062876	0.050598	9.816675	-0.003004	0.001275	0.001908
01242	13065467	0.048159	0.034755	9.803328	-0.000331	0.001418	-0.000253
01243	13065517	0.057490	0.045269	9.799921	-0.005633	0.005126	-0.002201
01244	13065567	0.064619	0.049878	9.801570	-0.006156	0.002041	-0.006612
01245	13065617	0.063483	0.049592	9.802533	-0.005008	0.000623	0.000401
01246	13065667	0.059765	0.053208	9.809496	-0.004423	0.002506	-0.000139
01247	13065717	0.060783	0.063256	9.827715	-0.002123	-0.000360	0.001220
01248	13065767	0.058743	0.055809	9.815261	-0.007566	0.002542	-0.001538
01249	13065817	0.049846	0.059797	9.805719	-0.005389	-0.001582	-0.000987
01250	13065867	0.067325	0.037431	9.820017	-0.000218	0.000838	-0.000510
01251	13065917	0.052879	0.040911	9.825594	-0.001708	0.004659	0.000926
01252	13065967	0.057108	0.060759	9.813593	-0.004314	-0.000405	-0.003934
01253	13066017	0.055967	0.052952	9.810962	-0.003003	0.000852	0.000332
01254	13066067	0.068321	0.050989	9.822644	-0.004455	0.000979	-0.004861
01255	13066117	0.047371	0.059603	9.804286	-0.003321	0.001743	-0.003602
01256	13066167	0.049595	0.042026	9.792068	-0.001709	-0.000482	0.000034
01257	13066217	0.052696	0.052222	9.795873	-0.002786	0.003074	-0.003821
01258	13066267	0.056200	0.053804	9.822223	-0.001226	-0.000670	-0.000259
01259	13066317	0.047007	0.066319	9.807884	-0.005887	0.001991	-0.002797
01260	13066367	0.064383	0.050137	9.813798	-0.005194	-0.000707	-0.001179
01261	13066417	0.047890	0.066274	9.828974	-0.005864	0.000412	-0.000241
01262	13066467	0.055226	0.040065	9.806652	-0.007693	0.001738	-0.000001
01263	13066517	0.040621	0.062270	9.819899	-0.005715	0.000378	-0.002867
01264	13066567	0.051872	0.045362	9.805718	-0.002817	-0.000022	-0.002529
01265	13066617	0.048716	0.048408	9.804042	-0.004125	0.001024	-0.000785
01266	13066667	0.053701	0.033904	9.797794	-0.002760	0.001174	-0.001973
01267	13066717	0.060561	0.047977	9.809022	-0.004128	0.001894	-0.001938
01268	13066767	0.046829	0.064864	9.804056	-0.001416	0.001265	-0.001435
01269	13066817	0.033663	0.067255	9.817307	-0.005006	-0.000441	0.000075
01270	13066867	0.066108	0.032129	9.811637	-0.004075	-0.001749	-0.000482
01271	13066917	0.061401	0.048591	9.802551	-0.004321	-0.001210	-0.002269
01272	13066967	0.061648	0.043615	9.798471	-0.006434	0.001011	-0.002000
01273	13067017	0.048437	0.052589	9.813879	-0.003642	-0.002326	-0.000452
01274	13067067	0.060019	0.060064	9.810450	-0.005261	0.000291	-0.002229
01275	13067117	0.034996	0.063860	9.797165	-0.000938	0.000074	-0.004610
01276	13067167	0.056438	0.040530	9.798728	-0.006320	0.001699	0.000411
01277	13067217	0.049756	0.047401	9.808828	-0.005462	0.004940	-0.001337
01278	13067267	0.059088	0.047439	9.818621	-0.003797	0.000814	0.001420
01279	13067317	0.059311	0.047531	9.798967	-0.000910	-0.001762	-0.001899
01280	13067367	0.052994	0.057802	9.817926	-0.004338	0.002895	-0.000583
01281	13067417	0.051088	0.049306	9.813380	-0.003845	-0.000844	-0.001243
01282	13067467	0.043820	0.057945	9.812457	-0.006594	0.000405	0.001273
01283	13067517	0.062711	0.046091	9.815006	-0.003847	0.000262	0.000618
01284	13067567	0.039910	0.047313	9.815118	-0.002350	-0.002820	-0.002218
01285	13067617	0.031279	0.041099	9.819229	-0.004537	0.004152	0.000615
01286	13067667	0.051335	0.054934	9.816260	-0.005734	0.001488	0.001109
01287	13067717	0.040687	0.052836	9.817026	-0.005512	0.001322	-0.001742
01288	13067767	0.043936	0.046345	9.798794	-0.004292	0.004116	-0.003108
01289	13067817	0.046246	0.052335	9.809808	-0.006156	0.000738	0.002552
01290	13067867	0.023194	0.052637	9.803944	-0.004181	0.000003	0.002606
01291	13067917	0.050048	0.052711	9.808825	-0.002822	0.002373	-0.000332
01292	13067967	0.039554	0.044823	9.822551	-0.001037	0.002499	-0.001615
01293	13068017	0.051320	0.048410	9.807385	-0.004365	0.001802	0.002397
01294	13068067	0.049646	0.048752	9.804759	-0.002521	0.001629	-0.002038
01295	13068117	0.068014	0.038557	9.826003	-0.005965	-0.000622	-0.001688
01296	13068167	0.049234	0.069108	9.802606	-0.003418	-0.000356	-0.002301
01297	13068217	0.072631	0.034016	9.819509	-0.004206	0.000343	-0.002073
01298	13068267	0.063174	0.055760	9.816681	-0.005018	-0.001921	0.002469
01299	13068317	0.062048	0.048986	9.794633	-0.002794	0.002504	0.000213
01300	13068367	0.064817	0.035050	9.809959	-0.004166	0.000983	-0.004859
01301	13068417	0.073742	0.032325	9.807281	-0.003435	0.000291	-0.002043
01302	13068467	0.074917	0.046445	9.811581	-0.008139	0.001372	-0.002249
01303	13068517	0.057453	0.043146	9.815266	-0.004867	0.002003	-0.005078
01304	13068567	0.058157	0.028274	9.803043	-0.000206	0.003419	-0.001165
01305	13068617	0.055852	0.048412	9.804969	-0.007489	0.002354	0.000322
01306	13068667	0.046103	0.039153	9.804057	-0.004397	0.004701	0.000517
01307	13068717	0.049186	0.050017	9.804046	-0.007845	0.001349	-0.000805
01308	13068767	0.055259	0.034408	9.824629	-0.005662	-0.001968	0.001414
01309	13068817	0.050824	0.057497	9.790854	-0.003005	0.000848	-0.002455
01310	13068867	0.049942	0.036248	9.815310	-0.003511	0.001779	-0.000113
01311	13068917	0.058190	0.047175	9.810944	-0.006302	0.002084	-0.001063
01312	13068967	0.045707	0.060648	9.814846	-0.002452	-0.000469	-0.002499
01313	13069017	0.050042	0.055078	9.803555	-0.005975	0.000799	-0.000335
01314	13069067	0.067843	0.057446	9.790282	-0.002485	0.002828	-0.000782
01315	13069117	0.058361	0.045206	9.822924	-0.003100	0.001913	-0.001974
01316	13069167	0.037736	0.068266	9.805054	-0.002075	-0.000235	-0.002112
01317	13069217	0.059929	0.057494	9.814296	-0.004181	0.001802	0.000336
01318	13069267	0.049189	0.056744	9.819860	-0.003715	0.002094	-0.002286
01319	13069317	0.067319	0.025374	9.808270	-0.003912	0.000384	0.000078
01320	13069367	0.062296	0.048638	9.803984	-0.002710	-0.000109	0.001544
01321	13069417	0.046022	0.057984	9.797589	-0.003940	0.001221	-0.000688
01322	13069467	0.050637	0.049155	9.807397	-0.004084	-0.001495	-0.001793
01323	13069517	0.067897	0.037316	9.791975	-0.000995	0.003313	-0.000044
01324	13069567	0.038378	0.070429	9.820879	-0.001663	-0.000865	-0.000193
01325	13069617	0.051972	0.066854	9.813137	-0.005300	0.000580	-0.002262
01326	13069667	0.045962	0.039714	9.814131	-0.003523	-0.001000	-0.001055
01327	13069717	0.056006	0.043647	9.814553	-0.003372	0.003160	-0.004172
01328	13069767	0.058964	0.041917	9.823174	-0.003871	-0.001332	-0.003585
01329	13069817	0.063946	0.051847	9.794860	-0.004812	0.000270	-0.001047
01330	13069867	0.041144	0.042639	9.807438	-0.002509	0.000604	0.001229
01331	13069917	0.062909	0.039854	9.806622	-0.001504	-0.002155	-0.001006
01332	13069967	0.053394	0.045828	9.825110	-0.002351	0.000376	-0.001435
01333	13070017	0.071633	0.057081	9.802007	-0.004319	0.004119	-0.002343
01334	13070067	0.044119	0.051238	9.805749	-0.002524	0.001597	-0.003831
01335	13070117	0.039420	0.048229	9.804578	-0.005937	0.000707	-0.000401
01336	13070167	0.067125	0.036007	9.822647	-0.005671	0.000424	0.001326
01337	13070217	0.049960	0.052371	9.819862	-0.000321	0.001997	-0.001146
01338	13070267	0.069847	0.053129	9.815923	-0.002045	-0.001227	-0.001155
01339	13070317	0.063213	0.058826	9.817624	-0.004720	0.002696	-0.001385
01340	13070367	0.039451	0.063764	9.798573	-0.007159	0.002909	-0.001121
01341	13070417	0.051026	0.039759	9.816737	-0.002313	0.004351	-0.003018
01342	13070467	0.057710	0.047158	9.820060	-0.002632	0.001144	-0.003355
01343	13070517	0.049510	0.053629	9.818662	-0.006402	0.001214	-0.002064
01344	13070567	0.061529	0.038467	9.833939	-0.002483	0.001533	-0.002618
01345	13070617	0.036948	0.051314	9.819449	-0.006286	-0.000462	0.000651
01346	13070667	0.055365	0.051535	9.826777	-0.002186	0.002517	0.000241
01347	13070717	0.040316	0.060481	9.816788	-0.003940	0.002392	0.000951
01348	13070767	0.057253	0.030697	9.820548	-0.006001	0.000312	-0.003384
01349	13070817	0.059522	0.039237	9.829640	-0.000241	0.001580	-0.000536
01350	13070867	0.038881	0.057479	9.809373	-0.004591	-0.001431	0.000038
01351	13070917	0.054437	0.047573	9.804018	-0.004290	0.000223	0.001644
01352	13070967	0.055580	0.048141	9.811918	-0.004799	0.001146	-0.001269
01353	13071017	0.038635	0.060621	9.821590	-0.003259	0.004240	-0.000003
01354	13071067	0.061785	0.046267	9.811883	-0.005940	0.001768	-0.001423
01355	13071117	0.063916	0.056695	9.804211	-0.003453	-0.002027	0.000603
01356	13071167	0.057391	0.054502	9.817422	-0.003977	0.001319	-0.002035
01357	13071217	0.037859	0.065815	9.793311	-0.001689	0.000974	-0.000504
01358	13071267	0.052865	0.052921	9.804742	-0.006194	0.001832	0.000373
01359	13071317	0.050475	0.043774	9.816024	-0.004631	-0.001143	0.000358
01360	13071367	0.049354	0.048995	9.813151	-0.005440	0.000103	0.000168
01361	13071417	0.064815	0.044594	9.819302	-0.006218	0.002737	0.001631
01362	13071467	0.053585	0.044902	9.791086	-0.003867	0.000904	-0.000435
01363	13071517	0.046753	0.062505	9.817711	-0.001951	0.002298	0.001780
01364	13071567	0.050142	0.049846	9.803317	-0.004277	0.000372	-0.002936
01365	13071617	0.059259	0.048122	9.820049	-0.003134	0.003879	-0.003948
01366	13071667	0.055800	0.058652	9.797537	-0.001795	-0.000101	-0.002816
01367	13071717	0.049768	0.059228	9.806437	-0.005703	0.001024	-0.004563
01368	13071767	0.054994	0.062224	9.804247	-0.007126	0.001647	-0.002954
01369	13071817	0.060687	0.060420	9.808307	-0.002895	0.000697	0.000421
01370	13071867	0.039916	0.057290	9.823505	-0.003284	0.000817	0.000812
01371	13071917	0.054809	0.056051	9.803055	-0.007400	0.000154	-0.003766
01372	13071967	0.055383	0.047990	9.806885	-0.004841	0.001106	-0.003188
01373	13072017	0.051495	0.046919	9.813140	-0.003751	0.001327	-0.001108
01374	13072067	0.044368	0.050576	9.804065	-0.002099	0.002941	0.001078
01375	13072117	0.054293	0.052362	9.799456	-0.005844	0.004739	-0.001629
01376	13072167	0.059534	0.046976	9.800159	-0.004871	0.000101	-0.004192
01377	13072217	0.051375	0.055260	9.814091	-0.002016	0.002260	0.000016
01378	13072267	0.068833	0.055202	9.813769	-0.003951	0.000907	0.002834
01379	13072317	0.058555	0.039862	9.801366	-0.004387	0.003447	0.001052
01380	13072367	0.062426	0.034721	9.813810	-0.002751	0.001756	-0.003129
01381	13072417	0.047805	0.043995	9.809087	-0.010081	-0.001178	-0.003894
01382	13072467	0.053447	0.040654	9.814324	-0.007189	0.003845	-0.002303
01383	13072517	0.055396	0.058097	9.817673	-0.002741	-0.000278	-0.002051
01384	13072567	0.044144	0.052540	9.800467	-0.000985	0.001990	0.001676
01385	13072617	0.037587	0.066945	9.804822	-0.006573	-0.000566	-0.001302
01386	13072667	0.046336	0.061066	9.814356	-0.003722	0.002451	-0.000715
01387	13072717	0.052374	0.039141	9.809537	-0.004011	0.001646	0.001331
01388	13072767	0.052985	0.041297	9.796848	-0.001475	-0.003221	-0.002390
01389	13072817	0.057542	0.054066	9.797059	-0.005844	-0.001328	-0.000859
01390	13072867	0.074808	0.060707	9.796963	-0.006422	0.000592	-0.002581
01391	13072917	0.050036	0.071878	9.822730	-0.005301	-0.000647	-0.004092
01392	13072967	0.051605	0.056993	9.783895	-0.006764	-0.000436	0.000814
01393	13073017	0.038111	0.062655	9.795229	-0.003395	0.002331	-0.000524
01394	13073067	0.053221	0.047323	9.805463	-0.003757	0.000457	0.000042
01395	13073117	0.041661	0.051036	9.820384	0.000391	0.001819	-0.001884
01396	13073167	0.053745	0.058672	9.823910	-0.002829	-0.000466	-0.000223
01397	13073217	0.054918	0.060160	9.817426	-0.006200	0.001795	-0.003019
01398	13073267	0.045409	0.049583	9.802623	-0.003344	0.001331	-0.002067
01399	13073317	0.060434	0.040947	9.808059	-0.004457	0.001542	0.001618
01400	13073367	0.068803	0.036391	9.814255	-0.004560	0.001504	-0.000596
01401	13073417	0.068291	0.040730	9.828160	-0.003841	-0.002069	-0.000805
01402	13073467	0.045012	0.052909	9.819887	-0.004790	-0.000309	-0.001500
01403	13073517	0.055415	0.048201	9.794898	-0.003900	0.002328	0.002330
01404	13073567	0.056740	0.052004	9.807837	-0.005059	0.002039	-0.002667
01405	13073617	0.058016	0.056716	9.795613	-0.004363	-0.000555	0.000615
01406	13073667	0.057070	0.049549	9.800651	-0.004250	0.000259	0.003824
01407	13073717	0.052360	0.066755	9.799227	-0.007344	0.001449	-0.003502
01408	13073767	0.051879	0.041489	9.813387	-0.003974	-0.000940	-0.002147
01409	13073817	0.062476	0.059278	9.807565	-0.003424	0.005937	-0.003265
01410	13073867	0.043997	0.039122	9.808625	-0.001643	0.003723	0.001595
01411	13073917	0.047224	0.040874	9.798791	-0.006273	-0.001344	-0.005794
01412	13073967	0.048390	0.049987	9.805239	-0.006415	0.003400	-0.003493
01413	13074017	0.060806	0.056099	9.812374	-0.002950	-0.001054	-0.002242
01414	13074067	0.044285	0.056071	9.810774	-0.005066	0.002791	0.002656
01415	13074117	0.046702	0.050063	9.817950	-0.004799	0.001717	-0.004659
01416	13074167	0.045923	0.068539	9.799990	-0.000645	-0.001951	-0.001547
01417	13074217	0.048506	0.039649	9.813873	-0.006796	0.001825	0.001214
01418	13074267	0.062192	0.053824	9.816922	-0.004483	-0.000653	0.001287
01419	13074317	0.036675	0.074826	9.804339	-0.005908	0.000440	-0.004824
01420	13074367	0.052322	0.059720	9.830872	-0.002674	-0.000599	-0.002880
01421	13074417	0.073137	0.029138	9.813757	-0.005667	0.000161	-0.001624
01422	13074467	0.053232	0.063836	9.810252	-0.004423	0.001349	0.000048
01423	13074517	0.065781	0.052764	9.810676	-0.004091	0.001094	0.001550
01424	13074567	0.047504	0.049864	9.799257	-0.005816	0.002938	0.000124
01425	13074617	0.052130	0.053795	9.814332	-0.003913	0.001453	0.000206
01426	13074667	0.044874	0.068161	9.806454	-0.008121	0.001758	-0.004426
01427	13074717	0.076948	0.028654	9.815405	-0.005643	0.003021	-0.007343
01428	13074767	0.062383	0.036141	9.809013	-0.006163	0.002735	-0.000420
01429	13074817	0.071048	0.050618	9.817354	-0.005391	-0.000610	-0.001275
01430	13074867	0.055989	0.039528	9.808093	-0.000940	-0.002462	0.001714
01431	13074917	0.064898	0.050471	9.807084	-0.005320	0.001197	-0.002867
01432	13074967	0.040422	0.045922	9.807922	-0.003287	0.001556	-0.003926
01433	13075017	0.056787	0.048457	9.807359	-0.005379	0.001199	-0.000110
01434	13075067	0.039817	0.042592	9.798346	-0.009083	-0.001059	0.000498
01435	13075117	0.060872	0.047011	9.801106	-0.003336	0.001231	-0.002458
01436	13075167	0.058274	0.064995	9.812866	-0.004709	-0.001184	-0.003745
01437	13075217	0.062611	0.046282	9.829856	-0.006075	0.000899	0.000495
01438	13075267	0.062821	0.040986	9.825548	-0.001048	-0.001240	0.000569
01439	13075317	0.063170	0.049092	9.817635	-0.004724	-0.000570	-0.003230
01440	13075367	0.055114	0.047317	9.806652	-0.002936	0.002822	-0.000881
01441	13075417	0.055818	0.050932	9.801129	-0.005009	0.002284	0.005762
01442	13075467	0.052059	0.045415	9.814099	-0.007441	-0.000488	-0.001814
01443	13075517	0.068197	0.030513	9.796528	-0.002142	0.001770	-0.003291
01444	13075567	0.062768	0.038761	9.826271	-0.004642	0.001082	-0.001783
01445	13075617	0.052380	0.036041	9.811941	-0.001956	0.002199	-0.000338
01446	13075667	0.049620	0.049922	9.814588	-0.005676	0.000252	-0.003319
01447	13075717	0.051990	0.054636	9.827278	-0.000601	0.002960	-0.001397
01448	13075767	0.055734	0.053805	9.815756	-0.005067	0.001462	-0.000528
01449	13075817	0.053248	0.039814	9.811213	-0.005536	0.002068	-0.001963
01450	13075867	0.052837	0.035839	9.801390	-0.001357	0.004697	0.001243
01451	13075917	0.061425	0.056317	9.801345	-0.001060	0.004049	-0.003024
01452	13075967	0.061205	0.051603	9.808542	-0.004793	0.002084	-0.000013
01453	13076017	0.062711	0.044794	9.824592	-0.000634	-0.000564	-0.003984
01454	13076067	0.040176	0.055574	9.821342	-0.007297	0.001363	0.000316
01455	13076117	0.051930	0.057309	9.800900	-0.003576	0.001944	-0.000495
01456	13076167	0.043640	0.049212	9.813423	-0.003954	0.001611	-0.002035
01457	13076217	0.051152	0.040077	9.809069	-0.003480	0.001585	-0.001971
01458	13076267	0.041268	0.067947	9.825416	-0.004631	-0.001274	-0.001083
01459	13076317	0.063735	0.048667	9.802776	-0.003040	-0.000119	-0.001054
01460	13076367	0.061270	0.022781	9.815726	-0.003948	0.004482	-0.001730
01461	13076417	0.038596	0.076734	9.810562	-0.002919	0.000176	-0.001338
01462	13076467	0.054061	0.053164	9.808331	-0.004570	0.001855	-0.000974
01463	13076517	0.055861	0.058296	9.789157	-0.001788	-0.000064	-0.001730
01464	13076567	0.036968	0.060702	9.814642	-0.004119	0.003932	-0.000676
01465	13076617	0.056480	0.049033	9.816231	-0.005230	0.002492	-0.001353
01466	13076667	0.061216	0.055488	9.814768	-0.007027	-0.001119	0.001100
01467	13076717	0.035085	0.049561	9.816581	-0.001892	-0.000834	0.000224
01468	13076767	0.055912	0.037026	9.813357	-0.002602	0.001806	0.003122
01469	13076817	0.053803	0.050436	9.831828	-0.007296	0.001131	-0.000715
01470	13076867	0.046210	0.058352	9.803815	-0.005599	0.001034	-0.000493
01471	13076917	0.035510	0.053734	9.803154	-0.005410	0.001398	0.001974
01472	13076967	0.057208	0.046875	9.820781	-0.002954	0.001138	-0.003098
01473	13077017	0.048336	0.035953	9.814602	-0.002819	-0.000019	-0.002588
01474	13077067	0.029893	0.059046	9.812279	-0.003236	0.004301	-0.000997
01475	13077117	0.062395	0.061716	9.804694	-0.002564	0.000317	0.000481
01476	13077167	0.033286	0.049873	9.790940	-0.005358	0.000260	-0.003094
01477	13077217	0.041893	0.058065	9.800487	-0.006544	0.001503	-0.000553
01478	13077267	0.046395	0.049888	9.820834	-0.001971	0.004269	0.003392
01479	13077317	0.060286	0.059850	9.828912	-0.003409	0.001391	-0.002615
01480	13077367	0.050677	0.066619	9.830153	-0.001901	0.002583	-0.001746
01481	13077417	0.050547	0.060973	9.825361	-0.001711	0.001552	-0.001339
01482	13077467	0.050243	0.046346	9.819378	-0.003070	0.003181	0.000536
01483	13077517	0.050415	0.051122	9.816502	-0.001903	0.002849	0.002102
01484	13077567	0.046617	0.049689	9.811731	-0.004184	0.003997	-0.001347
01485	13077617	0.036906	0.057123	9.798347	-0.004958	0.004473	0.001864
01486	13077667	0.063984	0.053169	9.797494	-0.006403	0.000016	-0.001810
01487	13077717	0.066261	0.033248	9.810445	0.001001	0.000636	-0.001927
01488	13077767	0.063804	0.042767	9.798940	-0.005232	0.000720	0.000238
01489	13077817	0.043282	0.042358	9.812221	-0.002984	-0.000630	-0.000066
01490	13077867	0.063988	0.020065	9.813560	-0.003210	0.001466	-0.000117
01491	13077917	0.057949	0.049596	9.813587	-0.004188	-0.000139	-0.001531
01492	13077967	0.053058	0.052484	9.830389	-0.007570	-0.000194	0.000947
01493	13078017	0.056872	0.043304	9.804966	-0.004451	-0.000181	-0.004894
01494	13078067	0.057159	0.050874	9.810228	-0.002796	0.003371	-0.002157
01495	13078117	0.048343	0.031906	9.810286	-0.006037	0.002506	-0.003946
01496	13078167	0.060638	0.037702	9.791049	-0.002109	0.000574	-0.003105
01497	13078217	0.060099	0.040666	9.819090	-0.008150	0.001926	0.000287
01498	13078267	0.062826	0.045912	9.800139	-0.001404	0.001748	-0.002907
01499	13078317	0.050513	0.053575	9.810749	-0.002383	0.001680	0.002482
01500	13078367	0.047703	0.058264	9.796863	-0.004432	-0.000201	0.001322
01501	13078417	0.079832	0.051766	9.804844	-0.008514	0.002209	0.000318
01502	13078467	0.044649	0.036329	9.835235	-0.001865	-0.000745	-0.001507
01503	13078517	0.040960	0.052990	9.816548	-0.000884	0.000729	-0.000186
01504	13078567	0.057620	0.042426	9.839235	-0.000349	0.002969	-0.001302
01505	13078617	0.049196	0.051384	9.801656	-0.001107	-0.001634	-0.003443
01506	13078667	0.060601	0.061519	9.804702	-0.006382	0.003435	-0.003655
01507	13078717	0.044511	0.033252	9.788495	-0.002284	-0.000520	-0.000324
01508	13078767	0.062478	0.044370	9.820759	-0.001556	0.000357	-0.003233
01509	13078817	0.049687	0.047243	9.805957	-0.004521	-0.000050	-0.003225
01510	13078867	0.074534	0.043914	9.793134	-0.004496	0.001672	0.000879
01511	13078917	0.058736	0.038696	9.811667	-0.003824	0.001680	-0.000433
01512	13078967	0.055098	0.046872	9.805929	-0.003472	0.003423	-0.002987
01513	13079017	0.022965	0.047965	9.814731	-0.002731	0.001442	-0.000787
01514	13079067	0.059261	0.054475	9.822692	-0.003201	0.000879	-0.002714
01515	13079117	0.064395	0.045483	9.814271	-0.000786	0.001635	-0.001055
01516	13079167	0.060854	0.034779	9.826277	-0.003991	0.002000	-0.000015
01517	13079217	0.046194	0.050160	9.828975	-0.004274	-0.000531	-0.003105
01518	13079267	0.041571	0.059664	9.822292	-0.004642	0.000982	-0.002354
01519	13079317	0.061397	0.031822	9.816925	-0.004487	0.003543	0.000027
01520	13079367	0.061601	0.040489	9.787691	-0.006019	-0.001847	-0.000191
01521	13079417	0.056967	0.045708	9.788910	-0.002965	-0.000374	-0.001859
01522	13079467	0.047653	0.045956	9.784153	-0.001432	0.001588	-0.001623
01523	13079517	0.044531	0.058777	9.810540	-0.002088	-0.000845	-0.001504
01524	13079567	0.059157	0.043952	9.827724	-0.003146	-0.000931	-0.003944
01525	13079617	0.054938	0.046782	9.831823	-0.000094	0.002939	-0.001590
01526	13079667	0.064987	0.053258	9.827689	-0.004880	0.000264	-0.003643
01527	13079717	0.065125	0.043338	9.810910	-0.004619	0.003736	0.002018
01528	13079767	0.064963	0.033589	9.812589	-0.002894	0.003632	-0.001389
01529	13079817	0.048607	0.035504	9.797098	-0.004484	0.003118	-0.002633
01530	13079867	0.047014	0.050815	9.802376	-0.003403	0.000293	-0.002037
01531	13079917	0.049428	0.046738	9.773846	-0.005090	-0.000130	-0.000998
01532	13079967	0.051366	0.038597	9.778391	-0.006475	0.002235	-0.001370
01533	13080017	0.063408	0.048064	9.815004	-0.001155	0.000872	-0.003026
01534	13080067	0.048705	0.061293	9.815778	-0.006539	0.001560	0.000587
01535	13080117	0.038660	0.055570	9.818721	-0.000167	0.003150	-0.001768
01536	13080167	0.070006	0.032793	9.819274	-0.004517	0.002208	-0.000509
01537	13080217	0.036501	0.061503	9.821360	-0.005139	0.002813	0.001550
01538	13080267	0.069816	0.044633	9.813519	-0.009671	0.003242	-0.001773
01539	13080317	0.053799	0.039361	9.821285	-0.007470	-0.001689	-0.001417
01540	13080367	0.047627	0.070286	9.813874	-0.006504	0.001202	-0.002205
01541	13080417	0.049218	0.043681	9.807153	-0.002769	0.001365	-0.001253
01542	13080467	0.060706	0.051907	9.807579	-0.001837	0.003348	-0.001954
01543	13080517	0.049780	0.056469	9.793010	-0.003273	0.003457	0.001066
01544	13080567	0.052986	0.041846	9.794206	-0.000340	-0.001333	0.001158
01545	13080617	0.049191	0.061744	9.787742	-0.004352	-0.000115	-0.000774
01546	13080667	0.048328	0.070789	9.808835	-0.006885	0.002294	0.000395
01547	13080717	0.070673	0.039777	9.801780	-0.002116	0.002857	-0.003685
01548	13080767	0.059775	0.044277	9.831790	-0.007821	0.000504	0.000837
01549	13080817	0.052121	0.043806	9.813140	-0.005407	-0.002270	-0.002549
01550	13080867	0.061428	0.060635	9.828423	-0.001758	0.002930	-0.001188
01551	13080917	0.054340	0.050348	9.803532	-0.007243	0.002450	0.000143
01552	13080967	0.041228	0.055017	9.817513	-0.004803	-0.002088	0.000338
01553	13081017	0.046489	0.055198	9.817956	-0.007817	-0.000787	0.000481
01554	13081067	0.032257	0.059791	9.815385	-0.009078	0.003507	-0.004011
01555	13081117	0.054691	0.045577	9.808328	-0.004611	0.000977	-0.001636
01556	13081167	0.065113	0.040018	9.790302	-0.005727	0.001958	-0.000826
01557	13081217	0.039530	0.035453	9.800024	-0.000163	0.004152	-0.001117
01558	13081267	0.066182	0.035742	9.819297	-0.007895	-0.000502	-0.002149
01559	13081317	0.053881	0.056515	9.806423	-0.004882	-0.001414	0.000626
01560	13081367	0.069715	0.047268	9.815447	-0.005985	-0.001378	-0.003251
01561	13081417	0.057917	0.050307	9.814308	-0.003436	-0.000878	-0.002227
01562	13081467	0.060040	0.047241	9.810459	-0.006165	0.003826	-0.000400
01563	13081517	0.058770	0.057935	9.800882	-0.002539	0.003109	-0.003169
01564	13081567	0.047644	0.052679	9.817473	-0.005251	0.000797	-0.004679
01565	13081617	0.059970	0.041001	9.805432	-0.003577	0.000906	0.002047
01566	13081667	0.040383	0.052924	9.798096	-0.005902	0.000443	0.000449
01567	13081717	0.054869	0.067498	9.817918	-0.004940	-0.000807	-0.002255
01568	13081767	0.062995	0.040197	9.789361	-0.008427	-0.000639	-0.000032
01569	13081817	0.060943	0.042392	9.810940	-0.001951	0.000030	0.001238
01570	13081867	0.055996	0.047694	9.816468	-0.002736	0.002462	-0.001890
01571	13081917	0.042043	0.044857	9.795211	-0.007101	0.002736	-0.004087
01572	13081967	0.037842	0.061373	9.808655	-0.002751	0.001144	0.000416
01573	13082017	0.044514	0.052542	9.807663	-0.005344	0.002263	0.002059
01574	13082067	0.057117	0.039236	9.821506	-0.006271	-0.001119	-0.001290
01575	13082117	0.056289	0.040262	9.814795	-0.005127	0.004327	-0.000847
01576	13082167	0.044054	0.052970	9.813890	-0.004969	0.001162	-0.001088
01577	13082217	0.054953	0.063741	9.803777	-0.003225	0.000975	0.001213
01578	13082267	0.066464	0.047941	9.808982	-0.001626	0.005135	0.002193
01579	13082317	0.067223	0.029208	9.814988	-0.007468	0.000116	-0.003653
01580	13082367	0.061052	0.045598	9.811894	-0.005037	0.001225	-0.002246
01581	13082417	0.039805	0.066367	9.815346	-0.004411	0.002050	0.000102
01582	13082467	0.061926	0.036159	9.809737	-0.006288	0.000232	-0.002503
01583	13082517	0.046370	0.056904	9.823232	-0.003420	-0.000260	-0.001325
01584	13082567	0.052491	0.056241	9.791557	-0.004870	0.001939	-0.003265
01585	13082617	0.054220	0.034335	9.818880	-0.003111	0.003263	-0.000251
01586	13082667	0.067723	0.028531	9.824571	-0.000843	-0.000990	-0.001723
01587	13082717	0.077993	0.041086	9.815157	-0.003007	0.003073	0.000384
01588	13082767	0.055919	0.053926	9.807598	-0.005499	0.003932	-0.001746
01589	13082817	0.056514	0.036968	9.791303	0.000710	0.002388	-0.004240
01590	13082867	0.049208	0.046830	9.801171	-0.003067	0.002746	-0.003074
01591	13082917	0.039428	0.074202	9.806973	-0.001579	-0.001710	-0.000054
01592	13082967	0.047503	0.053165	9.811253	0.000107	-0.001620	-0.001886
01593	13083017	0.037108	0.063491	9.803392	-0.003774	0.000697	-0.003820
01594	13083067	0.046888	0.032328	9.816273	-0.005055	0.003068	0.000364
01595	13083117	0.053129	0.061578	9.805468	-0.002186	-0.002018	-0.002749
01596	13083167	0.051202	0.061352	9.804029	-0.004449	-0.000080	-0.000679
01597	13083217	0.041446	0.049076	9.822307	-0.003038	-0.000287	-0.002287
01598	13083267	0.031643	0.050053	9.821383	-0.004880	0.002523	-0.002038
01599	13083317	0.052384	0.053824	9.811453	-0.002595	0.001621	-0.004586
01600	13083367	0.048778	0.037682	9.799008	-0.001971	0.004774	0.000909
01601	13083417	0.049076	0.034852	9.814588	-0.001416	0.000999	-0.002285
01602	13083467	0.039910	0.060367	9.776049	-0.004117	0.001467	-0.003301
01603	13083517	0.056752	0.051781	9.807600	-0.005934	0.000109	-0.004040
01604	13083567	0.051059	0.050408	9.800198	-0.004701	0.003011	0.000107
01605	13083617	0.059589	0.045667	9.814541	-0.000750	0.002501	0.000382
01606	13083667	0.041668	0.057237	9.811513	-0.004575	-0.000184	-0.001834
01607	13083717	0.052401	0.026945	9.829195	-0.006199	0.001854	-0.000508
01608	13083767	0.060754	0.048288	9.820525	-0.005636	0.001089	-0.000481
01609	13083817	0.045851	0.044617	9.808853	-0.002901	0.002655	-0.000895
01610	13083867	0.051784	0.045036	9.812662	-0.001652	0.001350	-0.002411
01611	13083917	0.048049	0.061742	9.805487	-0.003380	0.001414	-0.003467
01612	13083967	0.057133	0.034969	9.804238	-0.004371	0.004530	-0.002901
01613	13084017	0.054658	0.044833	9.802814	-0.002455	0.002892	0.000869
01614	13084067	0.050050	0.052457	9.814097	-0.008625	0.000487	-0.001401
01615	13084117	0.046677	0.057813	9.778417	-0.005512	-0.002041	-0.001135
01616	13084167	0.059659	0.053058	9.805432	-0.003114	-0.000605	0.001045
01617	13084217	0.043591	0.039059	9.809590	-0.003607	0.000475	-0.003693
01618	13084267	0.051024	0.045911	9.811704	-0.005477	0.002024	-0.003328
01619	13084317	0.046515	0.065225	9.820834	-0.005449	0.001349	-0.000221
01620	13084367	0.065228	0.045808	9.800616	-0.005383	-0.001846	-0.001013
01621	13084417	0.051938	0.050748	9.812412	-0.002593	0.002246	0.001828
01622	13084467	0.063364	0.050808	9.811407	0.001739	0.001574	-0.000754
01623	13084517	0.070684	0.043294	9.800096	-0.004065	0.001118	0.000029
01624	13084567	0.069712	0.042443	9.809695	-0.003546	0.002004	0.001086
01625	13084617	0.040735	0.064117	9.798096	-0.004744	-0.000995	-0.001965
01626	13084667	0.057156	0.039332	9.799211	-0.006064	0.001373	-0.001085
01627	13084717	0.068389	0.048372	9.812339	-0.004227	0.001179	0.000252
01628	13084767	0.065357	0.048735	9.801565	-0.003219	0.002880	0.001864
01629	13084817	0.037405	0.043283	9.818961	-0.006163	0.003859	0.001077
01630	13084867	0.044556	0.047002	9.827803	-0.004231	0.000370	0.000665
01631	13084917	0.043932	0.069670	9.819410	-0.007883	-0.003090	-0.003827
01632	13084967	0.082339	0.064116	9.839591	0.000640	0.000644	-0.003737
01633	13085017	0.051587	0.042984	9.802590	-0.004569	0.002721	-0.002296
01634	13085067	0.070135	0.035053	9.796751	-0.004704	-0.001020	0.000918
01635	13085117	0.055303	0.043152	9.789399	-0.001495	0.001713	-0.000423
01636	13085167	0.064949	0.051859	9.797502	-0.002144	-0.001272	-0.001111
01637	13085217	0.059393	0.053822	9.808069	-0.000787	0.000432	-0.000241
01638	13085267	0.037374	0.049485	9.791883	-0.001729	-0.000200	-0.002450
01639	13085317	0.059696	0.066394	9.804951	-0.003964	-0.001174	-0.000659
01640	13085367	0.063009	0.064499	9.809004	-0.002978	0.000234	0.001498
01641	13085417	0.066111	0.055659	9.813781	-0.002383	0.003471	-0.001757
01642	13085467	0.054093	0.052483	9.821037	-0.005813	-0.000498	-0.000837
01643	13085517	0.055199	0.036671	9.815286	-0.005973	-0.000302	0.001021
01644	13085567	0.051949	0.051829	9.819847	-0.002311	-0.000282	-0.004435
01645	13085617	0.047557	0.042109	9.813883	-0.004703	-0.000083	0.000603
01646	13085667	0.076974	0.031145	9.806784	-0.004748	0.002464	0.000997
01647	13085717	0.050440	0.032992	9.817936	-0.006854	0.002231	-0.000405
01648	13085767	0.050729	0.049509	9.810500	-0.006458	0.004783	-0.003245
01649	13085817	0.043369	0.060857	9.823000	-0.005329	0.003578	-0.001584
01650	13085867	0.049111	0.058678	9.817224	-0.004288	-0.001951	0.001298
01651	13085917	0.049369	0.046656	9.826337	-0.006273	-0.000085	-0.000675
01652	13085967	0.073043	0.039585	9.811590	-0.005026	0.001035	-0.000738
01653	13086017	0.054229	0.059834	9.818395	-0.005750	0.000335	-0.005579
01654	13086067	0.049080	0.062580	9.798533	-0.001816	0.000836	0.000823
01655	13086117	0.057155	0.058033	9.803761	-0.004643	-0.000191	-0.003597
01656	13086167	0.059548	0.035871	9.799920	-0.003088	0.002620	0.000870
01657	13086217	0.054524	0.055407	9.823674	-0.002483	-0.000539	-0.001486
01658	13086267	0.061252	0.039223	9.829146	-0.003419	0.001675	-0.001667
01659	13086317	0.057192	0.052947	9.810720	-0.003736	-0.000691	-0.004337
01660	13086367	0.047345	0.060072	9.784639	-0.006421	-0.002475	0.000465
01661	13086417	0.060900	0.041381	9.809015	-0.005479	0.001223	0.000609
01662	13086467	0.049390	0.060472	9.816506	0.001420	0.002598	-0.001993
01663	13086517	0.053835	0.054987	9.799468	-0.004499	0.004363	-0.004184
01664	13086567	0.045935	0.067945	9.795193	-0.005843	-0.001395	0.001109
01665	13086617	0.051029	0.034299	9.803086	-0.002994	0.000722	0.002656
01666	13086667	0.059856	0.059328	9.814291	-0.004031	0.002856	-0.002460
01667	13086717	0.039897	0.062385	9.810316	-0.007377	0.001743	0.001231
01668	13086767	0.056497	0.049675	9.805207	-0.005762	0.002789	-0.005247
01669	13086817	0.032899	0.064615	9.816824	-0.004727	0.003917	0.000017
01670	13086867	0.059070	0.030410	9.812142	-0.005717	0.002639	-0.000502
01671	13086917	0.054568	0.047471	9.812407	-0.001509	0.004259	-0.000024
01672	13086967	0.063212	0.041995	9.816437	-0.004119	0.001600	-0.001056
01673	13087017	0.039644	0.048893	9.798815	-0.004012	0.002281	-0.001436
01674	13087067	0.048783	0.060787	9.803327	-0.004409	0.000726	-0.000070
01675	13087117	0.073763	0.037426	9.814947	-0.004671	0.002176	0.000677
01676	13087167	0.061620	0.043968	9.793916	-0.005018	0.003009	0.001355
01677	13087217	0.059061	0.053284	9.808309	-0.004525	0.002336	-0.001024
01678	13087267	0.043455	0.047334	9.804071	-0.006098	0.002500	-0.002296
01679	13087317	0.045459	0.074641	9.810044	-0.002814	0.001779	-0.001989
01680	13087367	0.042736	0.048134	9.805998	-0.001655	0.001377	-0.003915
01681	13087417	0.061829	0.039477	9.816209	-0.000230	0.002089	-0.001386
01682	13087467	0.063477	0.049466	9.804688	-0.008547	-0.000032	-0.003078
01683	13087517	0.053934	0.051234	9.799463	-0.004423	0.001470	0.001379
01684	13087567	0.061514	0.053148	9.801104	-0.004525	0.002468	0.000838
01685	13087617	0.054379	0.057328	9.801865	-0.001897	-0.000783	0.000234
01686	13087667	0.056521	0.058784	9.820063	-0.002029	0.002313	-0.002532
01687	13087717	0.059494	0.059353	9.813099	-0.004062	-0.000369	-0.001518
01688	13087767	0.058577	0.033402	9.805677	-0.003058	0.003193	-0.004545
01689	13087817	0.045617	0.052375	9.812210	-0.003070	-0.001021	0.002068
01690	13087867	0.063627	0.034858	9.804935	-0.003187	0.000718	0.002524
